run_id,condition,success,timeout,trial_type,trial_index,time_elapsed,internal_node_id,rt,response,ttype,stimulus,slider_start,word,im_mem,completioncode
106,1,TRUE,FALSE,preload,0,397,0.0-0.0,"""","""","""","""","""","""","""",""""
106,1,"""","""",survey-html-form,1,13865,0.0-1.0,13449.5,"{""age_year"":""1991"",""age_month"":""07""}",age_check,"""","""","""","""",""""
106,1,"""","""",html-keyboard-response,2,39095,0.0-3.0,25217.4,j,instructions,"<p class=""title"">Experiment</b></p>      	<p class=""instruct"">During the task, you will view a stream of word(s), and each will be displayed for 4 seconds. Please picture the food depicted by the word in your mind on a white plate. Then you will view an image of that food item. </p>        <p class=""instruct"">Please rate how much the image on the screen matches the food you depicted in your mind. You will rate each image on a scale from 0 to 10, with 0 being ‘does not match all’ and 10 being ‘perfect match’.</p>        <p class=""instruct"">There are no right answers. Please rate only based on your depiction of the food in your mind.</p>        <p class=""instruct"">Press ""j"" or ""k"" to continue.","""","""","""",""""
106,1,"""","""",survey-html-form,3,76240,0.0-4.0-0.0,37128,"[{""name"":""quiz1"",""value"":""Correct""},{""name"":""quiz2"",""value"":""Correct""}]",attention_check,"""","""","""","""",""""
106,1,"""","""",html-keyboard-response,4,79042,0.0-5.0-0.0,2794.5, ,quiz_complete,You successfully completed the quiz! Press any key to begin the task.,"""","""","""",""""
106,1,"""","""",html-keyboard-response,5,83078,0.0-7.0-0.0,null,null,view_stimuli,"<div class = ""display"">black beans with rice</div>","""","""","""",""""
106,1,"""","""",html-slider-response,6,87890,0.0-7.0-1.0,4805.2,23,rep_rating,"<div class = ""display"">black beans with rice</div><br><br><img src =https://voices.uchicago.edu/bakkourlab/files/2019/04/Black-Beans-with-rice.jpg></img>",74.40566446,black beans with rice,0.380952381,""""
106,1,"""","""",html-keyboard-response,7,91925,0.0-7.1-0.1,null,null,view_stimuli,"<div class = ""display"">baked potato</div>","""","""","""",""""
106,1,"""","""",html-slider-response,8,95647,0.0-7.1-1.1,3712.8,15,rep_rating,"<div class = ""display"">baked potato</div><br><br><img src =https://voices.uchicago.edu/bakkourlab/files/2019/04/Baked-Potato.jpg></img>",82.58239824,baked potato,0.475,""""
106,1,"""","""",html-keyboard-response,9,99682,0.0-7.2-0.2,null,null,view_stimuli,"<div class = ""display"">oreos</div>","""","""","""",""""
106,1,"""","""",html-slider-response,10,103858,0.0-7.2-1.2,4171.6,24,rep_rating,"<div class = ""display"">oreos</div><br><br><img src =https://voices.uchicago.edu/bakkourlab/files/2019/04/Oreos.jpg></img>",33.63839663,oreos,0.536585366,""""
106,1,"""","""",html-keyboard-response,11,107886,0.0-7.3-0.3,null,null,view_stimuli,"<div class = ""display"">craisins</div>","""","""","""",""""
106,1,"""","""",html-slider-response,12,112197,0.0-7.3-1.3,4307.3,98,rep_rating,"<div class = ""display"">craisins</div><br><br><img src =https://voices.uchicago.edu/bakkourlab/files/2019/04/Craisins-Ocean-Spray.jpg></img>",53.21203532,craisins,0.595238095,""""
106,1,"""","""",html-keyboard-response,13,116224,0.0-7.4-0.4,null,null,view_stimuli,"<div class = ""display"">olives</div>","""","""","""",""""
106,1,"""","""",html-slider-response,14,119759,0.0-7.4-1.4,3530.5,12,rep_rating,"<div class = ""display"">olives</div><br><br><img src =https://voices.uchicago.edu/bakkourlab/files/2019/04/Olives-green-withpimento.jpg></img>",76.5267386,olives,0.390243902,""""
106,1,"""","""",html-keyboard-response,15,123778,0.0-7.5-0.5,null,null,view_stimuli,"<div class = ""display"">buttered popcorn</div>","""","""","""",""""
106,1,"""","""",html-slider-response,16,128266,0.0-7.5-1.5,4483.4,83,rep_rating,"<div class = ""display"">buttered popcorn</div><br><br><img src =https://voices.uchicago.edu/bakkourlab/files/2019/04/Yellow-popcorn.jpg></img>",90.73007869,buttered popcorn,0.463414634,""""
106,1,"""","""",html-keyboard-response,17,132294,0.0-7.6-0.6,null,null,view_stimuli,"<div class = ""display"">minestrone soup</div>","""","""","""",""""
106,1,"""","""",html-slider-response,18,136705,0.0-7.6-1.6,4406.3,68,rep_rating,"<div class = ""display"">minestrone soup</div><br><br><img src =https://voices.uchicago.edu/bakkourlab/files/2019/04/Minestrone-Soup-chunky-.jpg></img>",29.20600629,minestrone soup,0.5,""""
106,1,"""","""",html-keyboard-response,19,140715,0.0-7.7-0.7,null,null,view_stimuli,"<div class = ""display"">chocolate chip cookies</div>","""","""","""",""""
106,1,"""","""",html-slider-response,20,144519,0.0-7.7-1.7,3799.2,63,rep_rating,"<div class = ""display"">chocolate chip cookies</div><br><br><img src =https://voices.uchicago.edu/bakkourlab/files/2019/04/Choc-Chip-cookies-Entenmanns.jpg></img>",45.9015708,chocolate chip cookies,0.35,""""
106,1,"""","""",html-keyboard-response,21,148543,0.0-7.8-0.8,null,null,view_stimuli,"<div class = ""display"">cheese nachos</div>","""","""","""",""""
106,1,"""","""",html-slider-response,22,158331,0.0-7.8-1.8,9780.7,4,rep_rating,"<div class = ""display"">cheese nachos</div><br><br><img src =https://voices.uchicago.edu/bakkourlab/files/2019/04/Cheese-Nachos.jpg></img>",28.89450149,cheese nachos,0.658536585,""""
106,1,"""","""",html-keyboard-response,23,162347,0.0-7.9-0.9,null,null,view_stimuli,"<div class = ""display"">broccoli and cauliflower</div>","""","""","""",""""
106,1,"""","""",html-slider-response,24,167633,0.0-7.9-1.9,5281.2,82,rep_rating,"<div class = ""display"">broccoli and cauliflower</div><br><br><img src =https://voices.uchicago.edu/bakkourlab/files/2019/04/Broccoli-Cauliflower-raw.jpg></img>",38.62125122,broccoli and cauliflower,0.425,""""
106,1,"""","""",html-keyboard-response,25,171670,0.0-7.10-0.10,null,null,view_stimuli,"<div class = ""display"">reeses pieces</div>","""","""","""",""""
106,1,"""","""",html-slider-response,26,181032,0.0-7.10-1.10,9357.8,52,rep_rating,"<div class = ""display"">reeses pieces</div><br><br><img src =https://voices.uchicago.edu/bakkourlab/files/2019/04/Reeses-Pieces.jpg></img>",38.57235059,reeses pieces,0.441860465,""""
106,1,"""","""",html-keyboard-response,27,185052,0.0-7.11-0.11,null,null,view_stimuli,"<div class = ""display"">bell pepper</div>","""","""","""",""""
106,1,"""","""",html-slider-response,28,197346,0.0-7.11-1.11,12289.3,5,rep_rating,"<div class = ""display"">bell pepper</div><br><br><img src =https://voices.uchicago.edu/bakkourlab/files/2019/04/Red-bell-pepper.jpg></img>",98.99910675,bell pepper,0.674418605,""""
106,1,"""","""",html-keyboard-response,29,201375,0.0-7.12-0.12,null,null,view_stimuli,"<div class = ""display"">carrot sticks</div>","""","""","""",""""
106,1,"""","""",html-slider-response,30,209684,0.0-7.12-1.12,8304.1,8,rep_rating,"<div class = ""display"">carrot sticks</div><br><br><img src =https://voices.uchicago.edu/bakkourlab/files/2019/04/Carrot-Sticks.jpg></img>",38.74586807,carrot sticks,0.318181818,""""
106,1,"""","""",html-keyboard-response,31,213696,0.0-7.13-0.13,null,null,view_stimuli,"<div class = ""display"">lox</div>","""","""","""",""""
106,1,"""","""",html-slider-response,32,221645,0.0-7.13-1.13,7944.8,0,rep_rating,"<div class = ""display"">lox</div><br><br><img src =https://voices.uchicago.edu/bakkourlab/files/2019/04/Lox.jpg></img>",90.4649672,lox,0.476190476,""""
106,1,"""","""",html-keyboard-response,33,225665,0.0-7.14-0.14,null,null,view_stimuli,"<div class = ""display"">mozzarella sticks</div>","""","""","""",""""
106,1,"""","""",html-slider-response,34,236076,0.0-7.14-1.14,10405.8,10,rep_rating,"<div class = ""display"">mozzarella sticks</div><br><br><img src =https://voices.uchicago.edu/bakkourlab/files/2019/04/Mozzarella-sticks-withmarinara-sauce.jpg></img>",62.30431925,mozzarella sticks,0.525,""""
106,1,"""","""",html-keyboard-response,35,240097,0.0-7.15-0.15,null,null,view_stimuli,"<div class = ""display"">roasted potato</div>","""","""","""",""""
106,1,"""","""",html-slider-response,36,244992,0.0-7.15-1.15,4890.2,87,rep_rating,"<div class = ""display"">roasted potato</div><br><br><img src =https://voices.uchicago.edu/bakkourlab/files/2019/04/Roasted-potato.jpg></img>",66.3448312,roasted potato,0.452380952,""""
106,1,"""","""",html-keyboard-response,37,249008,0.0-7.16-0.16,null,null,view_stimuli,"<div class = ""display"">cherry tomatoes</div>","""","""","""",""""
106,1,"""","""",html-slider-response,38,268490,0.0-7.16-1.16,19476.3,77,rep_rating,"<div class = ""display"">cherry tomatoes</div><br><br><img src =https://voices.uchicago.edu/bakkourlab/files/2019/04/Cherry-tomatoes.jpg></img>",97.4057652,cherry tomatoes,0.65,""""
106,1,"""","""",html-keyboard-response,39,272520,0.0-7.17-0.17,null,null,view_stimuli,"<div class = ""display"">avocado</div>","""","""","""",""""
106,1,"""","""",html-slider-response,40,276982,0.0-7.17-1.17,4457.1,21,rep_rating,"<div class = ""display"">avocado</div><br><br><img src =https://voices.uchicago.edu/bakkourlab/files/2019/04/Avocado-green.jpg></img>",58.86958568,avocado,0.547619048,""""
106,1,"""","""",html-keyboard-response,41,281006,0.0-7.18-0.18,null,null,view_stimuli,"<div class = ""display"">chicken noodle soup</div>","""","""","""",""""
106,1,"""","""",html-slider-response,42,285594,0.0-7.18-1.18,4584,93,rep_rating,"<div class = ""display"">chicken noodle soup</div><br><br><img src =https://voices.uchicago.edu/bakkourlab/files/2019/04/Chicken-noodle-soup-Campbells-Classic.jpg></img>",73.51642642,chicken noodle soup,0.523809524,""""
106,1,"""","""",html-keyboard-response,43,289611,0.0-7.19-0.19,null,null,view_stimuli,"<div class = ""display"">potato chips</div>","""","""","""",""""
106,1,"""","""",html-slider-response,44,294528,0.0-7.19-1.19,4912.8,60,rep_rating,"<div class = ""display"">potato chips</div><br><br><img src =https://voices.uchicago.edu/bakkourlab/files/2019/04/Potato-chips-Lays.jpg></img>",16.62038565,potato chips,0.577777778,""""
106,1,"""","""",html-keyboard-response,45,298557,0.0-7.20-0.20,null,null,view_stimuli,"<div class = ""display"">hard boiled eggs</div>","""","""","""",""""
106,1,"""","""",html-slider-response,46,304308,0.0-7.20-1.20,5747,98,rep_rating,"<div class = ""display"">hard boiled eggs</div><br><br><img src =https://voices.uchicago.edu/bakkourlab/files/2019/04/Eggs-hard-boiled.jpg></img>",26.8309691,hard boiled eggs,0.609756098,""""
106,1,"""","""",html-keyboard-response,47,308340,0.0-7.21-0.21,null,null,view_stimuli,"<div class = ""display"">pretzels</div>","""","""","""",""""
106,1,"""","""",html-slider-response,48,316697,0.0-7.21-1.21,8351,84,rep_rating,"<div class = ""display"">pretzels</div><br><br><img src =https://voices.uchicago.edu/bakkourlab/files/2019/04/Pretzels.jpg></img>",70.47146383,pretzels,0.55,""""
106,1,"""","""",html-keyboard-response,49,320723,0.0-7.22-0.22,null,null,view_stimuli,"<div class = ""display"">mashed potatoes</div>","""","""","""",""""
106,1,"""","""",html-slider-response,50,327339,0.0-7.22-1.22,6611.9,63,rep_rating,"<div class = ""display"">mashed potatoes</div><br><br><img src =https://voices.uchicago.edu/bakkourlab/files/2019/04/Mashed-potatoes-withbutter.jpg></img>",90.65226432,mashed potatoes,0.476190476,""""
106,1,"""","""",html-keyboard-response,51,331366,0.0-7.23-0.23,null,null,view_stimuli,"<div class = ""display"">mini muffins</div>","""","""","""",""""
106,1,"""","""",html-slider-response,52,338396,0.0-7.23-1.23,7026.7,32,rep_rating,"<div class = ""display"">mini muffins</div><br><br><img src =https://voices.uchicago.edu/bakkourlab/files/2019/04/Mini-muffins.jpg></img>",73.19947365,mini muffins,0.545454545,""""
106,1,"""","""",html-keyboard-response,53,342426,0.0-7.24-0.24,null,null,view_stimuli,"<div class = ""display"">cheese cubes</div>","""","""","""",""""
106,1,"""","""",html-slider-response,54,347011,0.0-7.24-1.24,4568.7,12,rep_rating,"<div class = ""display"">cheese cubes</div><br><br><img src =https://voices.uchicago.edu/bakkourlab/files/2019/04/Cheese-cubes-mild-cheddar.jpg></img>",11.71728738,cheese cubes,0.585365854,""""
106,1,"""","""",html-keyboard-response,55,351025,0.0-7.25-0.25,null,null,view_stimuli,"<div class = ""display"">salad</div>","""","""","""",""""
106,1,"""","""",html-slider-response,56,357973,0.0-7.25-1.25,6943,5,rep_rating,"<div class = ""display"">salad</div><br><br><img src =https://voices.uchicago.edu/bakkourlab/files/2019/04/Lettuce-salad.jpg></img>",38.13495372,salad,0.268292683,""""
106,1,"""","""",html-keyboard-response,57,362005,0.0-7.26-0.26,null,null,view_stimuli,"<div class = ""display"">1% milk</div>","""","""","""",""""
106,1,"""","""",html-slider-response,58,370591,0.0-7.26-1.26,8581.4,0,rep_rating,"<div class = ""display"">1% milk</div><br><br><img src =https://voices.uchicago.edu/bakkourlab/files/2019/04/1-milk.jpg></img>",20.99396334,1% milk,0.365853659,""""
106,1,"""","""",html-keyboard-response,59,374619,0.0-7.27-0.27,null,null,view_stimuli,"<div class = ""display"">apple</div>","""","""","""",""""
106,1,"""","""",html-slider-response,60,379113,0.0-7.27-1.27,4490.6,10,rep_rating,"<div class = ""display"">apple</div><br><br><img src =https://voices.uchicago.edu/bakkourlab/files/2019/04/Apple.jpg></img>",57.50664208,apple,0.609756098,""""
106,1,"""","""",html-keyboard-response,61,383136,0.0-7.28-0.28,null,null,view_stimuli,"<div class = ""display"">m&m's</div>","""","""","""",""""
106,1,"""","""",html-slider-response,62,387089,0.0-7.28-1.28,3948.6,87,rep_rating,"<div class = ""display"">m&m's</div><br><br><img src =https://voices.uchicago.edu/bakkourlab/files/2019/04/MM-candies.jpg></img>",42.20806111,m&m's,0.365853659,""""
106,1,"""","""",html-keyboard-response,63,391115,0.0-7.29-0.29,null,null,view_stimuli,"<div class = ""display"">falafel with pita</div>","""","""","""",""""
106,1,"""","""",html-slider-response,64,397434,0.0-7.29-1.29,6314,17,rep_rating,"<div class = ""display"">falafel with pita</div><br><br><img src =https://voices.uchicago.edu/bakkourlab/files/2019/04/Falafel-withpita.jpg></img>",71.83397156,falafel with pita,0.227272727,""""
106,1,"""","""",html-keyboard-response,65,401461,0.0-7.30-0.30,null,null,view_stimuli,"<div class = ""display"">skittles</div>","""","""","""",""""
106,1,"""","""",html-slider-response,66,407070,0.0-7.30-1.30,5602.6,51,rep_rating,"<div class = ""display"">skittles</div><br><br><img src =https://voices.uchicago.edu/bakkourlab/files/2019/04/Skittles.jpg></img>",65.31366691,skittles,0.292682927,""""
106,1,"""","""",html-keyboard-response,67,411080,0.0-7.31-0.31,null,null,view_stimuli,"<div class = ""display"">sun chips</div>","""","""","""",""""
106,1,"""","""",html-slider-response,68,420937,0.0-7.31-1.31,9852.5,81,rep_rating,"<div class = ""display"">sun chips</div><br><br><img src =https://voices.uchicago.edu/bakkourlab/files/2019/04/Sun-Chips.jpg></img>",65.86837435,sun chips,0.404761905,""""
106,1,"""","""",html-keyboard-response,69,424952,0.0-7.32-0.32,null,null,view_stimuli,"<div class = ""display"">celery and carrot sticks</div>","""","""","""",""""
106,1,"""","""",html-slider-response,70,430664,0.0-7.32-1.32,5707.5,90,rep_rating,"<div class = ""display"">celery and carrot sticks</div><br><br><img src =https://voices.uchicago.edu/bakkourlab/files/2019/04/Celery-Carrot-Sticks.jpg></img>",83.56647316,celery and carrot sticks,0.452380952,""""
106,1,"""","""",html-keyboard-response,71,434674,0.0-7.33-0.33,null,null,view_stimuli,"<div class = ""display"">popsicles</div>","""","""","""",""""
106,1,"""","""",html-slider-response,72,441629,0.0-7.33-1.33,6950.1,65,rep_rating,"<div class = ""display"">popsicles</div><br><br><img src =https://voices.uchicago.edu/bakkourlab/files/2019/04/Popsicles.jpg></img>",84.17436676,popsicles,0.571428571,""""
106,1,"""","""",html-keyboard-response,73,445654,0.0-7.34-0.34,null,null,view_stimuli,"<div class = ""display"">sweet potato</div>","""","""","""",""""
106,1,"""","""",html-slider-response,74,458623,0.0-7.34-1.34,12964.6,6,rep_rating,"<div class = ""display"">sweet potato</div><br><br><img src =https://voices.uchicago.edu/bakkourlab/files/2019/04/Sweet-Potato.jpg></img>",8.67675639,sweet potato,0.585365854,""""
106,1,"""","""",html-keyboard-response,75,462651,0.0-7.35-0.35,null,null,view_stimuli,"<div class = ""display"">steak</div>","""","""","""",""""
106,1,"""","""",html-slider-response,76,468056,0.0-7.35-1.35,5402.4,90,rep_rating,"<div class = ""display"">steak</div><br><br><img src =https://voices.uchicago.edu/bakkourlab/files/2019/04/Steak-T-bone.jpg></img>",66.78481603,steak,0.681818182,""""
106,1,"""","""",html-keyboard-response,77,472084,0.0-7.36-0.36,null,null,view_stimuli,"<div class = ""display"">hummus with pita chips</div>","""","""","""",""""
106,1,"""","""",html-slider-response,78,478216,0.0-7.36-1.36,6127.9,100,rep_rating,"<div class = ""display"">hummus with pita chips</div><br><br><img src =https://voices.uchicago.edu/bakkourlab/files/2019/04/Tribe-hummus-withpita-chips.jpg></img>",28.10693957,hummus with pita chips,0.536585366,""""
106,1,"""","""",html-keyboard-response,79,482236,0.0-7.37-0.37,null,null,view_stimuli,"<div class = ""display"">shredded wheat with milk</div>","""","""","""",""""
106,1,"""","""",html-slider-response,80,489684,0.0-7.37-1.37,7443.9,91,rep_rating,"<div class = ""display"">shredded wheat with milk</div><br><br><img src =https://voices.uchicago.edu/bakkourlab/files/2019/04/Shredded-wheat-1-biscuit-with-1-milk.jpg></img>",34.16249428,shredded wheat with milk,0.35,""""
106,1,"""","""",html-keyboard-response,81,493711,0.0-7.38-0.38,null,null,view_stimuli,"<div class = ""display"">cupcakes</div>","""","""","""",""""
106,1,"""","""",html-slider-response,82,503596,0.0-7.38-1.38,9879.6,0,rep_rating,"<div class = ""display"">cupcakes</div><br><br><img src =https://voices.uchicago.edu/bakkourlab/files/2019/04/Cupcakes-mini-frosted.jpg></img>",92.60987032,cupcakes,0.674418605,""""
106,1,"""","""",html-keyboard-response,83,507620,0.0-7.39-0.39,null,null,view_stimuli,"<div class = ""display"">french fries</div>","""","""","""",""""
106,1,"""","""",html-slider-response,84,513738,0.0-7.39-1.39,6114.5,69,rep_rating,"<div class = ""display"">french fries</div><br><br><img src =https://voices.uchicago.edu/bakkourlab/files/2019/04/French-Fries.jpg></img>",75.63968281,french fries,0.390243902,""""
106,1,"""","""",html-keyboard-response,85,517768,0.0-7.40-0.40,null,null,view_stimuli,"<div class = ""display"">ritz crackers</div>","""","""","""",""""
106,1,"""","""",html-slider-response,86,529889,0.0-7.40-1.40,12115,89,rep_rating,"<div class = ""display"">ritz crackers</div><br><br><img src =https://voices.uchicago.edu/bakkourlab/files/2019/04/Ritz-crackers.jpg></img>",84.84436225,ritz crackers,0.390243902,""""
106,1,"""","""",html-keyboard-response,87,533912,0.0-7.41-0.41,null,null,view_stimuli,"<div class = ""display"">grapefruit</div>","""","""","""",""""
106,1,"""","""",html-slider-response,88,540479,0.0-7.41-1.41,6562.8,0,rep_rating,"<div class = ""display"">grapefruit</div><br><br><img src =https://voices.uchicago.edu/bakkourlab/files/2019/04/Grapefruit.jpg></img>",60.30682935,grapefruit,0.55,""""
106,1,"""","""",html-keyboard-response,89,544494,0.0-7.42-0.42,null,null,view_stimuli,"<div class = ""display"">hash browns</div>","""","""","""",""""
106,1,"""","""",html-slider-response,90,553653,0.0-7.42-1.42,9155,0,rep_rating,"<div class = ""display"">hash browns</div><br><br><img src =https://voices.uchicago.edu/bakkourlab/files/2019/04/Hash-browns.jpg></img>",41.07991655,hash browns,0.292682927,""""
106,1,"""","""",html-keyboard-response,91,557669,0.0-7.43-0.43,null,null,view_stimuli,"<div class = ""display"">fruit salad</div>","""","""","""",""""
106,1,"""","""",html-slider-response,92,562812,0.0-7.43-1.43,5138.3,100,rep_rating,"<div class = ""display"">fruit salad</div><br><br><img src =https://voices.uchicago.edu/bakkourlab/files/2019/04/Fruit-salad.jpg></img>",92.37134602,fruit salad,0.5,""""
106,1,"""","""",html-keyboard-response,93,566844,0.0-7.44-0.44,null,null,view_stimuli,"<div class = ""display"">corn on the cob</div>","""","""","""",""""
106,1,"""","""",html-slider-response,94,575761,0.0-7.44-1.44,8912.1,50,rep_rating,"<div class = ""display"">corn on the cob</div><br><br><img src =https://voices.uchicago.edu/bakkourlab/files/2019/04/Corn-on-Cob.jpg></img>",84.64594325,corn on the cob,0.547619048,""""
106,1,"""","""",html-keyboard-response,95,579804,0.0-7.45-0.45,null,null,view_stimuli,"<div class = ""display"">popcorn</div>","""","""","""",""""
106,1,"""","""",html-slider-response,96,587319,0.0-7.45-1.45,7514,11,rep_rating,"<div class = ""display"">popcorn</div><br><br><img src =https://voices.uchicago.edu/bakkourlab/files/2019/04/Air-popped-popcorn.jpg></img>",95.28230164,popcorn,0.292682927,""""
106,1,"""","""",html-keyboard-response,97,591344,0.0-7.46-0.46,null,null,view_stimuli,"<div class = ""display"">egg salad</div>","""","""","""",""""
106,1,"""","""",html-slider-response,98,596891,0.0-7.46-1.46,5542.5,86,rep_rating,"<div class = ""display"">egg salad</div><br><br><img src =https://voices.uchicago.edu/bakkourlab/files/2019/04/Egg-salad.jpg></img>",34.636789,egg salad,0.23255814,""""
106,1,"""","""",html-keyboard-response,99,600926,0.0-7.47-0.47,null,null,view_stimuli,"<div class = ""display"">lollipops</div>","""","""","""",""""
106,1,"""","""",html-slider-response,100,615341,0.0-7.47-1.47,14410.2,45,rep_rating,"<div class = ""display"">lollipops</div><br><br><img src =https://voices.uchicago.edu/bakkourlab/files/2019/04/Lollipops.jpg></img>",78.55009298,lollipops,0.727272727,""""
106,1,"""","""",html-keyboard-response,101,619365,0.0-7.48-0.48,null,null,view_stimuli,"<div class = ""display"">sushi</div>","""","""","""",""""
106,1,"""","""",html-slider-response,102,647247,0.0-7.48-1.48,27879.7,0,rep_rating,"<div class = ""display"">sushi</div><br><br><img src =https://voices.uchicago.edu/bakkourlab/files/2019/04/Sushi-with-condiments.jpg></img>",26.51773479,sushi,0.475,""""
106,1,"""","""",html-keyboard-response,103,651284,0.0-7.49-0.49,null,null,view_stimuli,"<div class = ""display"">grilled chicken strips</div>","""","""","""",""""
106,1,"""","""",html-slider-response,104,659627,0.0-7.49-1.49,8338.6,80,rep_rating,"<div class = ""display"">grilled chicken strips</div><br><br><img src =https://voices.uchicago.edu/bakkourlab/files/2019/04/Grilled-chicken-strips.jpg></img>",96.53995623,grilled chicken strips,0.414634146,""""
106,1,"""","""",html-keyboard-response,105,663647,0.0-7.50-0.50,null,null,view_stimuli,"<div class = ""display"">croissant</div>","""","""","""",""""
106,1,"""","""",html-slider-response,106,672724,0.0-7.50-1.50,9072.6,100,rep_rating,"<div class = ""display"">croissant</div><br><br><img src =https://voices.uchicago.edu/bakkourlab/files/2019/04/Croissant-plain.jpg></img>",2.213498271,croissant,0.55,""""
106,1,"""","""",html-keyboard-response,107,676748,0.0-7.51-0.51,null,null,view_stimuli,"<div class = ""display"">pizza</div>","""","""","""",""""
106,1,"""","""",html-slider-response,108,690657,0.0-7.51-1.51,13906.4,22,rep_rating,"<div class = ""display"">pizza</div><br><br><img src =https://voices.uchicago.edu/bakkourlab/files/2019/04/Pizza-restaurant.jpg></img>",4.360198679,pizza,0.860465116,""""
106,1,"""","""",html-keyboard-response,109,694681,0.0-7.52-0.52,null,null,view_stimuli,"<div class = ""display"">yogurt pretzels</div>","""","""","""",""""
106,1,"""","""",html-slider-response,110,699312,0.0-7.52-1.52,4626.8,74,rep_rating,"<div class = ""display"">yogurt pretzels</div><br><br><img src =https://voices.uchicago.edu/bakkourlab/files/2019/04/Yogurt-pretzels.jpg></img>",91.12428314,yogurt pretzels,0.536585366,""""
106,1,"""","""",html-keyboard-response,111,703327,0.0-7.53-0.53,null,null,view_stimuli,"<div class = ""display"">granola with milk</div>","""","""","""",""""
106,1,"""","""",html-slider-response,112,707936,0.0-7.53-1.53,4602,93,rep_rating,"<div class = ""display"">granola with milk</div><br><br><img src =https://voices.uchicago.edu/bakkourlab/files/2019/04/Granola-with-whole-milk.jpg></img>",56.07790267,granola with milk,0.377777778,""""
106,1,"""","""",html-keyboard-response,113,711959,0.0-7.54-0.54,null,null,view_stimuli,"<div class = ""display"">pop tarts</div>","""","""","""",""""
106,1,"""","""",html-slider-response,114,716036,0.0-7.54-1.54,4069.8,82,rep_rating,"<div class = ""display"">pop tarts</div><br><br><img src =https://voices.uchicago.edu/bakkourlab/files/2019/04/Pop-Tart-strawberry-frosted.jpg></img>",68.38475214,pop tarts,0.380952381,""""
106,1,"""","""",html-keyboard-response,115,720057,0.0-7.55-0.55,null,null,view_stimuli,"<div class = ""display"">sour patch kids</div>","""","""","""",""""
106,1,"""","""",html-slider-response,116,727221,0.0-7.55-1.55,7158.6,74,rep_rating,"<div class = ""display"">sour patch kids</div><br><br><img src =https://voices.uchicago.edu/bakkourlab/files/2019/04/Sour-patch-kids-candy.jpg></img>",20.37737466,sour patch kids,0.476190476,""""
106,1,"""","""",html-keyboard-response,117,731242,0.0-7.56-0.56,null,null,view_stimuli,"<div class = ""display"">pear</div>","""","""","""",""""
106,1,"""","""",html-slider-response,118,738138,0.0-7.56-1.56,6891.5,66,rep_rating,"<div class = ""display"">pear</div><br><br><img src =https://voices.uchicago.edu/bakkourlab/files/2019/04/Pear.jpg></img>",94.87896458,pear,0.35,""""
106,1,"""","""",html-keyboard-response,119,742174,0.0-7.57-0.57,null,null,view_stimuli,"<div class = ""display"">grilled salmon</div>","""","""","""",""""
106,1,"""","""",html-slider-response,120,747965,0.0-7.57-1.57,5787.1,99,rep_rating,"<div class = ""display"">grilled salmon</div><br><br><img src =https://voices.uchicago.edu/bakkourlab/files/2019/04/Salmon-grilled.jpg></img>",72.21809021,grilled salmon,0.261904762,""""
106,1,"""","""",html-keyboard-response,121,752001,0.0-7.58-0.58,null,null,view_stimuli,"<div class = ""display"">white bread</div>","""","""","""",""""
106,1,"""","""",html-slider-response,122,757647,0.0-7.58-1.58,5640.1,82,rep_rating,"<div class = ""display"">white bread</div><br><br><img src =https://voices.uchicago.edu/bakkourlab/files/2019/04/White-Bread-Pepperidge-Farm-Hearty-White.jpg></img>",61.27558755,white bread,0.475,""""
106,1,"""","""",html-keyboard-response,123,761670,0.0-7.59-0.59,null,null,view_stimuli,"<div class = ""display"">bagel with cream cheese</div>","""","""","""",""""
106,1,"""","""",html-slider-response,124,771483,0.0-7.59-1.59,9809,15,rep_rating,"<div class = ""display"">bagel with cream cheese</div><br><br><img src =https://voices.uchicago.edu/bakkourlab/files/2019/04/Bagel-cream-cheese.jpg></img>",49.21741904,bagel with cream cheese,0.340909091,""""
106,1,"""","""",html-keyboard-response,125,775504,0.0-7.60-0.60,null,null,view_stimuli,"<div class = ""display"">granola bar</div>","""","""","""",""""
106,1,"""","""",html-slider-response,126,781318,0.0-7.60-1.60,5807.4,38,rep_rating,"<div class = ""display"">granola bar</div><br><br><img src =https://voices.uchicago.edu/bakkourlab/files/2019/04/Granola-bar-Nature-Valley-Crunchy.jpg></img>",61.66071282,granola bar,0.285714286,""""
106,1,"""","""",html-keyboard-response,127,785355,0.0-7.61-0.61,null,null,view_stimuli,"<div class = ""display"">peanut butter with banana</div>","""","""","""",""""
106,1,"""","""",html-slider-response,128,793578,0.0-7.61-1.61,8217.5,0,rep_rating,"<div class = ""display"">peanut butter with banana</div><br><br><img src =https://voices.uchicago.edu/bakkourlab/files/2019/04/Peanut-butter-1.5-oz-wt-withbanana-small.jpg></img>",13.85695652,peanut butter with banana,0.681818182,""""
106,1,"""","""",html-keyboard-response,129,797606,0.0-7.62-0.62,null,null,view_stimuli,"<div class = ""display"">kit kat</div>","""","""","""",""""
106,1,"""","""",html-slider-response,130,900092,0.0-7.62-1.62,102484.5,89,rep_rating,"<div class = ""display"">kit kat</div><br><br><img src =https://voices.uchicago.edu/bakkourlab/files/2019/04/Kit-Kat.jpg></img>",63.0776897,kit kat,0.688888889,""""
106,1,"""","""",html-keyboard-response,131,904116,0.0-7.63-0.63,null,null,view_stimuli,"<div class = ""display"">raisin bran with milk</div>","""","""","""",""""
106,1,"""","""",html-slider-response,132,910411,0.0-7.63-1.63,6291.1,100,rep_rating,"<div class = ""display"">raisin bran with milk</div><br><br><img src =https://voices.uchicago.edu/bakkourlab/files/2019/04/Raisin-Bran-with-whole-milk.jpg></img>",66.58278892,raisin bran with milk,0.295454545,""""
106,1,"""","""",html-keyboard-response,133,914436,0.0-7.64-0.64,null,null,view_stimuli,"<div class = ""display"">kettle corn</div>","""","""","""",""""
106,1,"""","""",html-slider-response,134,918834,0.0-7.64-1.64,4394.2,84,rep_rating,"<div class = ""display"">kettle corn</div><br><br><img src =https://voices.uchicago.edu/bakkourlab/files/2019/04/Kettle-Corn-Cracker-Jacks.jpg></img>",69.36691799,kettle corn,0.340909091,""""
106,1,"""","""",html-keyboard-response,135,922851,0.0-7.65-0.65,null,null,view_stimuli,"<div class = ""display"">whole milk</div>","""","""","""",""""
106,1,"""","""",html-slider-response,136,928898,0.0-7.65-1.65,6042.7,5,rep_rating,"<div class = ""display"">whole milk</div><br><br><img src =https://voices.uchicago.edu/bakkourlab/files/2019/04/Whole-milk.jpg></img>",8.143912184,whole milk,0.475,""""
106,1,"""","""",html-keyboard-response,137,932917,0.0-7.66-0.66,null,null,view_stimuli,"<div class = ""display"">mac and cheese</div>","""","""","""",""""
106,1,"""","""",html-slider-response,138,943058,0.0-7.66-1.66,10131.8,85,rep_rating,"<div class = ""display"">mac and cheese</div><br><br><img src =https://voices.uchicago.edu/bakkourlab/files/2019/04/Mac-and-cheese-Stouffers.jpg></img>",73.49118113,mac and cheese,0.475,""""
106,1,"""","""",html-keyboard-response,139,947083,0.0-7.67-0.67,null,null,view_stimuli,"<div class = ""display"">veggies with ranch dip</div>","""","""","""",""""
106,1,"""","""",html-slider-response,140,1002582,0.0-7.67-1.67,55495,80,rep_rating,"<div class = ""display"">veggies with ranch dip</div><br><br><img src =https://voices.uchicago.edu/bakkourlab/files/2019/04/Veggies-with-ranch-dip-Lays.jpg></img>",96.14742244,veggies with ranch dip,0.5,""""
106,1,"""","""",html-keyboard-response,141,1006613,0.0-7.68-0.68,null,null,view_stimuli,"<div class = ""display"">chocolate trail mix</div>","""","""","""",""""
106,1,"""","""",html-slider-response,142,1014051,0.0-7.68-1.68,7433.3,10,rep_rating,"<div class = ""display"">chocolate trail mix</div><br><br><img src =https://voices.uchicago.edu/bakkourlab/files/2019/04/Chocolate-trail-mix.jpg></img>",95.67190106,chocolate trail mix,0.476190476,""""
106,1,"""","""",html-keyboard-response,143,1018082,0.0-7.69-0.69,null,null,view_stimuli,"<div class = ""display"">raisins</div>","""","""","""",""""
106,1,"""","""",html-slider-response,144,1021906,0.0-7.69-1.69,3820.8,100,rep_rating,"<div class = ""display"">raisins</div><br><br><img src =https://voices.uchicago.edu/bakkourlab/files/2019/04/Raisins.jpg></img>",18.53519891,raisins,0.62,""""
106,1,"""","""",html-keyboard-response,145,1025943,0.0-7.70-0.70,null,null,view_stimuli,"<div class = ""display"">doughnuts</div>","""","""","""",""""
106,1,"""","""",html-slider-response,146,1031822,0.0-7.70-1.70,5875.3,65,rep_rating,"<div class = ""display"">doughnuts</div><br><br><img src =https://voices.uchicago.edu/bakkourlab/files/2019/04/Doughnuts-frosted-yeast-type.jpg></img>",16.58011609,doughnuts,0.575,""""
106,1,"""","""",html-keyboard-response,147,1035839,0.0-7.71-0.71,null,null,view_stimuli,"<div class = ""display"">peanut butter</div>","""","""","""",""""
106,1,"""","""",html-slider-response,148,1041868,0.0-7.71-1.71,6024.5,4,rep_rating,"<div class = ""display"">peanut butter</div><br><br><img src =https://voices.uchicago.edu/bakkourlab/files/2019/04/Peanut-butter.jpg></img>",3.704894171,peanut butter,0.772727273,""""
106,1,"""","""",html-keyboard-response,149,1045900,0.0-7.72-0.72,null,null,view_stimuli,"<div class = ""display"">string cheese</div>","""","""","""",""""
106,1,"""","""",html-slider-response,150,1054067,0.0-7.72-1.72,8159.1,64,rep_rating,"<div class = ""display"">string cheese</div><br><br><img src =https://voices.uchicago.edu/bakkourlab/files/2019/04/String-cheese.jpg></img>",34.88250348,string cheese,0.487804878,""""
106,1,"""","""",html-keyboard-response,151,1058096,0.0-7.73-0.73,null,null,view_stimuli,"<div class = ""display"">babybel cheese with crackers</div>","""","""","""",""""
106,1,"""","""",html-slider-response,152,1062376,0.0-7.73-1.73,4276.9,100,rep_rating,"<div class = ""display"">babybel cheese with crackers</div><br><br><img src =https://voices.uchicago.edu/bakkourlab/files/2019/04/Baby-Bell-cheese-withcrackers.jpg></img>",18.83106679,babybel cheese with crackers,0.365853659,""""
106,1,"""","""",html-keyboard-response,153,1066400,0.0-7.74-0.74,null,null,view_stimuli,"<div class = ""display"">wheat bread</div>","""","""","""",""""
106,1,"""","""",html-slider-response,154,1069983,0.0-7.74-1.74,3583.3,83,rep_rating,"<div class = ""display"">wheat bread</div><br><br><img src =https://voices.uchicago.edu/bakkourlab/files/2019/04/Wheat-Bread-Pepperidge-Farm-100-WW.jpg></img>",98.33622662,wheat bread,0.404255319,""""
106,1,"""","""",html-keyboard-response,155,1074009,0.0-7.75-0.75,null,null,view_stimuli,"<div class = ""display"">ice cream sundae</div>","""","""","""",""""
106,1,"""","""",html-slider-response,156,1078769,0.0-7.75-1.75,4753.4,0,rep_rating,"<div class = ""display"">ice cream sundae</div><br><br><img src =https://voices.uchicago.edu/bakkourlab/files/2019/04/Ice-cream-sundae-ice-cream-whip-cream-cherry.jpg></img>",95.41950523,ice cream sundae,0.511111111,""""
106,1,"""","""",html-keyboard-response,157,1082785,0.0-7.76-0.76,null,null,view_stimuli,"<div class = ""display"">green beans</div>","""","""","""",""""
106,1,"""","""",html-slider-response,158,1087623,0.0-7.76-1.76,4834.1,18,rep_rating,"<div class = ""display"">green beans</div><br><br><img src =https://voices.uchicago.edu/bakkourlab/files/2019/04/Green-beans-raw.jpg></img>",98.88848005,green beans,0.636363636,""""
106,1,"""","""",html-keyboard-response,159,1091661,0.0-7.77-0.77,null,null,view_stimuli,"<div class = ""display"">peach</div>","""","""","""",""""
106,1,"""","""",html-slider-response,160,1097014,0.0-7.77-1.77,5349.4,67,rep_rating,"<div class = ""display"">peach</div><br><br><img src =https://voices.uchicago.edu/bakkourlab/files/2019/04/Peach.jpg></img>",39.46353702,peach,0.35,""""
106,1,"""","""",html-keyboard-response,161,1101049,0.0-7.78-0.78,null,null,view_stimuli,"<div class = ""display"">tacos</div>","""","""","""",""""
106,1,"""","""",html-slider-response,162,1111623,0.0-7.78-1.78,10569.9,77,rep_rating,"<div class = ""display"">tacos</div><br><br><img src =https://voices.uchicago.edu/bakkourlab/files/2019/04/Taco-beef-Taco-Bell-soft-supreme-.jpg></img>",87.9638013,tacos,0.325,""""
106,1,"""","""",html-keyboard-response,163,1115635,0.0-7.79-0.79,null,null,view_stimuli,"<div class = ""display"">reeses peanut butter cups</div>","""","""","""",""""
106,1,"""","""",html-slider-response,164,1122604,0.0-7.79-1.79,6965.4,0,rep_rating,"<div class = ""display"">reeses peanut butter cups</div><br><br><img src =https://voices.uchicago.edu/bakkourlab/files/2019/04/Reeses-Peanut-butter-cups.jpg></img>",3.392834055,reeses peanut butter cups,0.545454545,""""
106,1,"""","""",html-keyboard-response,165,1126632,0.0-7.80-0.80,null,null,view_stimuli,"<div class = ""display"">trail mix</div>","""","""","""",""""
106,1,"""","""",html-slider-response,166,1132081,0.0-7.80-1.80,5438.1,11,rep_rating,"<div class = ""display"">trail mix</div><br><br><img src =https://voices.uchicago.edu/bakkourlab/files/2019/04/Trail-mix.jpg></img>",27.83428052,trail mix,0.4,""""
106,1,"""","""",html-keyboard-response,167,1136102,0.0-7.81-0.81,null,null,view_stimuli,"<div class = ""display"">edamame</div>","""","""","""",""""
106,1,"""","""",html-slider-response,168,1143648,0.0-7.81-1.81,7541.4,40,rep_rating,"<div class = ""display"">edamame</div><br><br><img src =https://voices.uchicago.edu/bakkourlab/files/2019/04/Edamame.jpg></img>",97.10580965,edamame,0.390243902,""""
106,1,"""","""",html-keyboard-response,169,1147664,0.0-7.82-0.82,null,null,view_stimuli,"<div class = ""display"">hershey kisses</div>","""","""","""",""""
106,1,"""","""",html-slider-response,170,1152497,0.0-7.82-1.82,4828.6,99,rep_rating,"<div class = ""display"">hershey kisses</div><br><br><img src =https://voices.uchicago.edu/bakkourlab/files/2019/04/Hersheys-Kisses.jpg></img>",91.76378647,hershey kisses,0.441860465,""""
106,1,"""","""",html-keyboard-response,171,1156528,0.0-7.83-0.83,null,null,view_stimuli,"<div class = ""display"">cherries</div>","""","""","""",""""
106,1,"""","""",html-slider-response,172,1164429,0.0-7.83-1.83,7896,82,rep_rating,"<div class = ""display"">cherries</div><br><br><img src =https://voices.uchicago.edu/bakkourlab/files/2019/04/Cherries.jpg></img>",68.55249093,cherries,0.414634146,""""
106,1,"""","""",html-keyboard-response,173,1168465,0.0-7.84-0.84,null,null,view_stimuli,"<div class = ""display"">seaweed</div>","""","""","""",""""
106,1,"""","""",html-slider-response,174,1175008,0.0-7.84-1.84,6538.9,25,rep_rating,"<div class = ""display"">seaweed</div><br><br><img src =https://voices.uchicago.edu/bakkourlab/files/2019/04/Seaweed-dehydrated.jpg></img>",41.51344522,seaweed,0.523809524,""""
106,1,"""","""",html-keyboard-response,175,1179026,0.0-7.85-0.85,null,null,view_stimuli,"<div class = ""display"">tuna</div>","""","""","""",""""
106,1,"""","""",html-slider-response,176,1192192,0.0-7.85-1.85,13160,54,rep_rating,"<div class = ""display"">tuna</div><br><br><img src =https://voices.uchicago.edu/bakkourlab/files/2019/04/Tuna-white-albacore-in-water-Bumble-Bee.jpg></img>",9.256205826,tuna,0.43902439,""""
106,1,"""","""",html-keyboard-response,177,1196227,0.0-7.86-0.86,null,null,view_stimuli,"<div class = ""display"">banana</div>","""","""","""",""""
106,1,"""","""",html-slider-response,178,1414699,0.0-7.86-1.86,218466.9,78,rep_rating,"<div class = ""display"">banana</div><br><br><img src =https://voices.uchicago.edu/bakkourlab/files/2019/04/Banana.jpg></img>",74.68898011,banana,0.707317073,""""
106,1,"""","""",html-keyboard-response,179,1418735,0.0-7.87-0.87,null,null,view_stimuli,"<div class = ""display"">salami</div>","""","""","""",""""
106,1,"""","""",html-slider-response,180,1421641,0.0-7.87-1.87,2902.6,79,rep_rating,"<div class = ""display"">salami</div><br><br><img src =https://voices.uchicago.edu/bakkourlab/files/2019/04/Salami.jpg></img>",98.09563549,salami,0.475,""""
106,1,"""","""",html-keyboard-response,181,1425660,0.0-7.88-0.88,null,null,view_stimuli,"<div class = ""display"">turkey sub</div>","""","""","""",""""
106,1,"""","""",html-slider-response,182,1428727,0.0-7.88-1.88,3063.2,89,rep_rating,"<div class = ""display"">turkey sub</div><br><br><img src =https://voices.uchicago.edu/bakkourlab/files/2019/04/Turkey-on-roll-with-lettuce-and-tomato.jpg></img>",55.51547754,turkey sub,0.365853659,""""
106,1,"""","""",html-keyboard-response,183,1432742,0.0-7.89-0.89,null,null,view_stimuli,"<div class = ""display"">turkey breast</div>","""","""","""",""""
106,1,"""","""",html-slider-response,184,1437919,0.0-7.89-1.89,5172.5,3,rep_rating,"<div class = ""display"">turkey breast</div><br><br><img src =https://voices.uchicago.edu/bakkourlab/files/2019/04/Turkey-breast-Oscar-Mayer-Deli-Select.jpg></img>",44.50861239,turkey breast,0.512195122,""""
106,1,"""","""",html-keyboard-response,185,1441956,0.0-7.90-0.90,null,null,view_stimuli,"<div class = ""display"">mango</div>","""","""","""",""""
106,1,"""","""",html-slider-response,186,1444458,0.0-7.90-1.90,2497.1,67,rep_rating,"<div class = ""display"">mango</div><br><br><img src =https://voices.uchicago.edu/bakkourlab/files/2019/04/Mango.jpg></img>",14.12837337,mango,0.595238095,""""
106,1,"""","""",html-keyboard-response,187,1448478,0.0-7.91-0.91,null,null,view_stimuli,"<div class = ""display"">blueberries</div>","""","""","""",""""
106,1,"""","""",html-slider-response,188,1451033,0.0-7.91-1.91,2548.6,82,rep_rating,"<div class = ""display"">blueberries</div><br><br><img src =https://voices.uchicago.edu/bakkourlab/files/2019/04/Blueberries.jpg></img>",13.021105,blueberries,0.609756098,""""
106,1,"""","""",html-keyboard-response,189,1455063,0.0-7.92-0.92,null,null,view_stimuli,"<div class = ""display"">cheez-its</div>","""","""","""",""""
106,1,"""","""",html-slider-response,190,1457651,0.0-7.92-1.92,2583.4,93,rep_rating,"<div class = ""display"">cheez-its</div><br><br><img src =https://voices.uchicago.edu/bakkourlab/files/2019/04/Cheeze-Itz.jpg></img>",83.05231118,cheez-its,0.428571429,""""
106,1,"""","""",html-keyboard-response,191,1461687,0.0-7.93-0.93,null,null,view_stimuli,"<div class = ""display"">hot dog</div>","""","""","""",""""
106,1,"""","""",html-slider-response,192,1489374,0.0-7.93-1.93,27682.5,84,rep_rating,"<div class = ""display"">hot dog</div><br><br><img src =https://voices.uchicago.edu/bakkourlab/files/2019/04/Hot-dog-on-bun-withmustard.jpg></img>",17.32402861,hot dog,0.571428571,""""
106,1,"""","""",html-keyboard-response,193,1493411,0.0-7.94-0.94,null,null,view_stimuli,"<div class = ""display"">graham crackers</div>","""","""","""",""""
106,1,"""","""",html-slider-response,194,1498114,0.0-7.94-1.94,4699.3,97,rep_rating,"<div class = ""display"">graham crackers</div><br><br><img src =https://voices.uchicago.edu/bakkourlab/files/2019/04/Graham-crackers-Nabisco-Original.jpg></img>",32.39779073,graham crackers,0.488372093,""""
106,1,"""","""",html-keyboard-response,195,1502151,0.0-7.95-0.95,null,null,view_stimuli,"<div class = ""display"">kiwi</div>","""","""","""",""""
106,1,"""","""",html-slider-response,196,1506894,0.0-7.95-1.95,4738.2,37,rep_rating,"<div class = ""display"">kiwi</div><br><br><img src =https://voices.uchicago.edu/bakkourlab/files/2019/04/Kiwi.jpg></img>",69.97593406,kiwi,0.463414634,""""
106,1,"""","""",html-keyboard-response,197,1510928,0.0-7.96-0.96,null,null,view_stimuli,"<div class = ""display"">spicy chicken caesar salad</div>","""","""","""",""""
106,1,"""","""",html-slider-response,198,1514785,0.0-7.96-1.96,3852.3,99,rep_rating,"<div class = ""display"">spicy chicken caesar salad</div><br><br><img src =https://voices.uchicago.edu/bakkourlab/files/2019/04/Salad-Spicy-Chicken-Caesar-Wendys-no-dressing.jpg></img>",94.38973742,spicy chicken caesar salad,0.325581395,""""
106,1,"""","""",html-keyboard-response,199,1518800,0.0-7.97-0.97,null,null,view_stimuli,"<div class = ""display"">lucky charms with milk</div>","""","""","""",""""
106,1,"""","""",html-slider-response,200,1522781,0.0-7.97-1.97,3974.9,100,rep_rating,"<div class = ""display"">lucky charms with milk</div><br><br><img src =https://voices.uchicago.edu/bakkourlab/files/2019/04/Lucky-Charms-with-1-milk.jpg></img>",98.20196302,lucky charms with milk,0.575,""""
106,1,"""","""",html-keyboard-response,201,1526807,0.0-7.98-0.98,null,null,view_stimuli,"<div class = ""display"">melba toast</div>","""","""","""",""""
106,1,"""","""",html-slider-response,202,1533277,0.0-7.98-1.98,6465.7,50,rep_rating,"<div class = ""display"">melba toast</div><br><br><img src =https://voices.uchicago.edu/bakkourlab/files/2019/04/Melba-Toast-rye-Old-London.jpg></img>",14.81641751,melba toast,0.3,""""
106,1,"""","""",html-keyboard-response,203,1537309,0.0-7.99-0.99,null,null,view_stimuli,"<div class = ""display"">turkey sandwich</div>","""","""","""",""""
106,1,"""","""",html-slider-response,204,1540531,0.0-7.99-1.99,3217.8,100,rep_rating,"<div class = ""display"">turkey sandwich</div><br><br><img src =https://voices.uchicago.edu/bakkourlab/files/2019/04/Turkey-sandwich-roll-with-lettuce-and-tomato.jpg></img>",34.43774612,turkey sandwich,0.25,""""
106,1,"""","""",html-keyboard-response,205,1544556,0.0-7.100-0.100,null,null,view_stimuli,"<div class = ""display"">cheerios</div>","""","""","""",""""
106,1,"""","""",html-slider-response,206,1547824,0.0-7.100-1.100,3268.9,93,rep_rating,"<div class = ""display"">cheerios</div><br><br><img src =https://voices.uchicago.edu/bakkourlab/files/2019/04/Cheerios-dry.jpg></img>",6.498020021,cheerios,0.365853659,""""
106,1,"""","""",html-keyboard-response,207,1551854,0.0-7.101-0.101,null,null,view_stimuli,"<div class = ""display"">burger</div>","""","""","""",""""
106,1,"""","""",html-slider-response,208,1555487,0.0-7.101-1.101,3628.5,16,rep_rating,"<div class = ""display"">burger</div><br><br><img src =https://voices.uchicago.edu/bakkourlab/files/2019/04/Burger-on-bun-homemade-80-lean.jpg></img>",91.32231033,burger,0.441860465,""""
106,1,"""","""",html-keyboard-response,209,1559519,0.0-7.102-0.102,null,null,view_stimuli,"<div class = ""display"">grilled cheese sandwich</div>","""","""","""",""""
106,1,"""","""",html-slider-response,210,1565657,0.0-7.102-1.102,6133.5,86,rep_rating,"<div class = ""display"">grilled cheese sandwich</div><br><br><img src =https://voices.uchicago.edu/bakkourlab/files/2019/04/Grilled-cheese.jpg></img>",58.51879626,grilled cheese sandwich,0.463414634,""""
106,1,"""","""",html-keyboard-response,211,1569693,0.0-7.103-0.103,null,null,view_stimuli,"<div class = ""display"">cantaloupe</div>","""","""","""",""""
106,1,"""","""",html-slider-response,212,1578250,0.0-7.103-1.103,8553.5,76,rep_rating,"<div class = ""display"">cantaloupe</div><br><br><img src =https://voices.uchicago.edu/bakkourlab/files/2019/04/Cantaloupe.jpg></img>",59.23609639,cantaloupe,0.55,""""
106,1,"""","""",html-keyboard-response,213,1582283,0.0-7.104-0.104,null,null,view_stimuli,"<div class = ""display"">rigatoni and sauce</div>","""","""","""",""""
106,1,"""","""",html-slider-response,214,1586210,0.0-7.104-1.104,3923.6,89,rep_rating,"<div class = ""display"">rigatoni and sauce</div><br><br><img src =https://voices.uchicago.edu/bakkourlab/files/2019/04/Rigatoni-withtomato-sauce.jpg></img>",49.97168172,rigatoni and sauce,0.475,""""
106,1,"""","""",html-keyboard-response,215,1590239,0.0-7.105-0.105,null,null,view_stimuli,"<div class = ""display"">swedish fish</div>","""","""","""",""""
106,1,"""","""",html-slider-response,216,1593067,0.0-7.105-1.105,2825,81,rep_rating,"<div class = ""display"">swedish fish</div><br><br><img src =https://voices.uchicago.edu/bakkourlab/files/2019/04/Swedish-Fish.jpg></img>",76.14695032,swedish fish,0.285714286,""""
106,1,"""","""",html-keyboard-response,217,1597088,0.0-7.106-0.106,null,null,view_stimuli,"<div class = ""display"">american cheese</div>","""","""","""",""""
106,1,"""","""",html-slider-response,218,1600598,0.0-7.106-1.106,3505.9,59,rep_rating,"<div class = ""display"">american cheese</div><br><br><img src =https://voices.uchicago.edu/bakkourlab/files/2019/04/American-cheese.jpg></img>",19.93718809,american cheese,0.545454545,""""
106,1,"""","""",html-keyboard-response,219,1604632,0.0-7.107-0.107,null,null,view_stimuli,"<div class = ""display"">soy crisps</div>","""","""","""",""""
106,1,"""","""",html-slider-response,220,1609365,0.0-7.107-1.107,4724.9,31,rep_rating,"<div class = ""display"">soy crisps</div><br><br><img src =https://voices.uchicago.edu/bakkourlab/files/2019/04/Soy-crisps.jpg></img>",45.73423289,soy crisps,0.317073171,""""
106,1,"""","""",html-keyboard-response,221,1613406,0.0-7.108-0.108,null,null,view_stimuli,"<div class = ""display"">rice cakes</div>","""","""","""",""""
106,1,"""","""",html-slider-response,222,1618132,0.0-7.108-1.108,4720.8,100,rep_rating,"<div class = ""display"">rice cakes</div><br><br><img src =https://voices.uchicago.edu/bakkourlab/files/2019/04/Rice-Cakes.jpg></img>",85.02531795,rice cakes,0.386363636,""""
106,1,"""","""",html-keyboard-response,223,1622157,0.0-7.109-0.109,null,null,view_stimuli,"<div class = ""display"">baguette with olive oil</div>","""","""","""",""""
106,1,"""","""",html-slider-response,224,1626508,0.0-7.109-1.109,4343,63,rep_rating,"<div class = ""display"">baguette with olive oil</div><br><br><img src =https://voices.uchicago.edu/bakkourlab/files/2019/04/Baguette-with-olive-oil.jpg></img>",18.71350423,baguette with olive oil,0.4,""""
106,1,"""","""",html-keyboard-response,225,1630529,0.0-7.110-0.110,null,null,view_stimuli,"<div class = ""display"">cucumber</div>","""","""","""",""""
106,1,"""","""",html-slider-response,226,1637027,0.0-7.110-1.110,6494.2,69,rep_rating,"<div class = ""display"">cucumber</div><br><br><img src =https://voices.uchicago.edu/bakkourlab/files/2019/04/Cucumber-slices.jpg></img>",98.95315222,cucumber,0.511111111,""""
106,1,"""","""",html-keyboard-response,227,1641049,0.0-7.111-0.111,null,null,view_stimuli,"<div class = ""display"">rice and beans</div>","""","""","""",""""
106,1,"""","""",html-slider-response,228,1751771,0.0-7.111-1.111,110716.7,20,rep_rating,"<div class = ""display"">rice and beans</div><br><br><img src =https://voices.uchicago.edu/bakkourlab/files/2019/04/Rice-Beans.jpg></img>",65.35158707,rice and beans,0.431818182,""""
106,1,"""","""",html-keyboard-response,229,1755794,0.0-7.112-0.112,null,null,view_stimuli,"<div class = ""display"">celery sticks</div>","""","""","""",""""
106,1,"""","""",html-slider-response,230,1764880,0.0-7.112-1.112,9081.7,71,rep_rating,"<div class = ""display"">celery sticks</div><br><br><img src =https://voices.uchicago.edu/bakkourlab/files/2019/04/Celery-sticks.jpg></img>",14.07863489,celery sticks,0.56097561,""""
106,1,"""","""",html-keyboard-response,231,1768908,0.0-7.113-0.113,null,null,view_stimuli,"<div class = ""display"">fried eggs</div>","""","""","""",""""
106,1,"""","""",html-slider-response,232,1772980,0.0-7.113-1.113,4066.2,74,rep_rating,"<div class = ""display"">fried eggs</div><br><br><img src =https://voices.uchicago.edu/bakkourlab/files/2019/04/Eggs-fried.jpg></img>",8.438856474,fried eggs,0.452380952,""""
106,1,"""","""",html-keyboard-response,233,1777018,0.0-7.114-0.114,null,null,view_stimuli,"<div class = ""display"">chocolate covered pretzels</div>","""","""","""",""""
106,1,"""","""",html-slider-response,234,1780741,0.0-7.114-1.114,3718.6,91,rep_rating,"<div class = ""display"">chocolate covered pretzels</div><br><br><img src =https://voices.uchicago.edu/bakkourlab/files/2019/04/Chocolate-dark-covered-pretzels-Flipz.jpg></img>",15.30894146,chocolate covered pretzels,0.5,""""
106,1,"""","""",html-keyboard-response,235,1784773,0.0-7.115-0.115,null,null,view_stimuli,"<div class = ""display"">skim milk</div>","""","""","""",""""
106,1,"""","""",html-slider-response,236,1791897,0.0-7.115-1.115,7118.8,98,rep_rating,"<div class = ""display"">skim milk</div><br><br><img src =https://voices.uchicago.edu/bakkourlab/files/2019/04/Skim-milk.jpg></img>",63.9265128,skim milk,0.418604651,""""
106,1,"""","""",html-keyboard-response,237,1795927,0.0-7.116-0.116,null,null,view_stimuli,"<div class = ""display"">mushrooms</div>","""","""","""",""""
106,1,"""","""",html-slider-response,238,1817523,0.0-7.116-1.116,21590,33,rep_rating,"<div class = ""display"">mushrooms</div><br><br><img src =https://voices.uchicago.edu/bakkourlab/files/2019/04/Mushrooms-raw.jpg></img>",58.91194429,mushrooms,0.428571429,""""
106,1,"""","""",html-keyboard-response,239,1821550,0.0-7.117-0.117,null,null,view_stimuli,"<div class = ""display"">broccoli</div>","""","""","""",""""
106,1,"""","""",html-slider-response,240,1826682,0.0-7.117-1.117,5124,100,rep_rating,"<div class = ""display"">broccoli</div><br><br><img src =https://voices.uchicago.edu/bakkourlab/files/2019/04/Broccoli-raw.jpg></img>",38.71637985,broccoli,0.428571429,""""
106,1,"""","""",html-keyboard-response,241,1831569,0.0-7.118-0.118,null,null,view_stimuli,"<div class = ""display"">raspberries</div>","""","""","""",""""
106,1,"""","""",html-slider-response,242,1888220,0.0-7.118-1.118,56649.3,85,rep_rating,"<div class = ""display"">raspberries</div><br><br><img src =https://voices.uchicago.edu/bakkourlab/files/2019/04/Raspberries.jpg></img>",57.95219399,raspberries,0.365853659,""""
106,1,"""","""",html-keyboard-response,243,1892241,0.0-7.119-0.119,null,null,view_stimuli,"<div class = ""display"">grapes</div>","""","""","""",""""
106,1,"""","""",html-slider-response,244,1895503,0.0-7.119-1.119,3257.4,69,rep_rating,"<div class = ""display"">grapes</div><br><br><img src =https://voices.uchicago.edu/bakkourlab/files/2019/04/Grapes.jpg></img>",24.70376233,grapes,0.6,""""
106,1,"""","""",html-keyboard-response,245,1899532,0.0-7.120-0.120,null,null,view_stimuli,"<div class = ""display"">orange</div>","""","""","""",""""
106,1,"""","""",html-slider-response,246,1904611,0.0-7.120-1.120,5074.1,25,rep_rating,"<div class = ""display"">orange</div><br><br><img src =https://voices.uchicago.edu/bakkourlab/files/2019/04/Orange-sliced.jpg></img>",88.04293024,orange,0.568181818,""""
106,1,"""","""",html-keyboard-response,247,1908632,0.0-7.121-0.121,null,null,view_stimuli,"<div class = ""display"">plain bagel</div>","""","""","""",""""
106,1,"""","""",html-slider-response,248,1925489,0.0-7.121-1.121,16852.7,85,rep_rating,"<div class = ""display"">plain bagel</div><br><br><img src =https://voices.uchicago.edu/bakkourlab/files/2019/04/Bagel-plain.jpg></img>",67.59385408,plain bagel,0.609756098,""""
106,1,"""","""",html-keyboard-response,249,1929522,0.0-7.122-0.122,null,null,view_stimuli,"<div class = ""display"">froot loops with milk</div>","""","""","""",""""
106,1,"""","""",html-slider-response,250,1932568,0.0-7.122-1.122,3043,86,rep_rating,"<div class = ""display"">froot loops with milk</div><br><br><img src =https://voices.uchicago.edu/bakkourlab/files/2019/04/Fruit-Loops-w-whole-milk.jpg></img>",45.37211919,froot loops with milk,0.43902439,""""
106,1,"""","""",html-keyboard-response,251,1936597,0.0-7.123-0.123,null,null,view_stimuli,"<div class = ""display"">cocktail shrimp</div>","""","""","""",""""
106,1,"""","""",html-slider-response,252,1940609,0.0-7.123-1.123,4007.7,99,rep_rating,"<div class = ""display"">cocktail shrimp</div><br><br><img src =https://voices.uchicago.edu/bakkourlab/files/2019/04/Cocktail-shrimp.jpg></img>",18.79933966,cocktail shrimp,0.575,""""
106,1,"""","""",html-keyboard-response,253,1944647,0.0-7.124-0.124,null,null,view_stimuli,"<div class = ""display"">plain rigatoni</div>","""","""","""",""""
106,1,"""","""",html-slider-response,254,1950100,0.0-7.124-1.124,5450.1,86,rep_rating,"<div class = ""display"">plain rigatoni</div><br><br><img src =https://voices.uchicago.edu/bakkourlab/files/2019/04/Rigatoni-plain.jpg></img>",50.4345628,plain rigatoni,0.523809524,""""
106,1,"""","""",html-keyboard-response,255,1954130,0.0-7.125-0.125,null,null,view_stimuli,"<div class = ""display"">pickles</div>","""","""","""",""""
106,1,"""","""",html-slider-response,256,1957485,0.0-7.125-1.125,3347.3,11,rep_rating,"<div class = ""display"">pickles</div><br><br><img src =https://voices.uchicago.edu/bakkourlab/files/2019/04/Pickles-dill.jpg></img>",31.24340767,pickles,0.523809524,""""
106,1,"""","""",html-keyboard-response,257,1961517,0.0-7.126-0.126,null,null,view_stimuli,"<div class = ""display"">strawberries</div>","""","""","""",""""
106,1,"""","""",html-slider-response,258,1968684,0.0-7.126-1.126,7162.7,58,rep_rating,"<div class = ""display"">strawberries</div><br><br><img src =https://voices.uchicago.edu/bakkourlab/files/2019/04/Strawberries.jpg></img>",98.59612223,strawberries,0.380952381,""""
106,1,"""","""",html-keyboard-response,259,1972716,0.0-7.127-0.127,null,null,view_stimuli,"<div class = ""display"">doritos</div>","""","""","""",""""
106,1,"""","""",html-slider-response,260,1976609,0.0-7.127-1.127,3888.8,91,rep_rating,"<div class = ""display"">doritos</div><br><br><img src =https://voices.uchicago.edu/bakkourlab/files/2019/04/Doritos-Nacho-Cheese.jpg></img>",77.91973897,doritos,0.619047619,""""
106,1,"""","""",html-keyboard-response,261,1980646,0.0-7.128-0.128,null,null,view_stimuli,"<div class = ""display"">peanut butter ritz crackers</div>","""","""","""",""""
106,1,"""","""",html-slider-response,262,1985801,0.0-7.128-1.128,5150.6,85,rep_rating,"<div class = ""display"">peanut butter ritz crackers</div><br><br><img src =https://voices.uchicago.edu/bakkourlab/files/2019/04/Peanut-Butter-Ritz-Bits-Crackers.jpg></img>",46.72079734,peanut butter ritz crackers,0.5,""""
106,1,"""","""",html-keyboard-response,263,1989826,0.0-7.129-0.129,null,null,view_stimuli,"<div class = ""display"">yogurt with granola & strawberries</div>","""","""","""",""""
106,1,"""","""",html-slider-response,264,1993087,0.0-7.129-1.129,3255.6,58,rep_rating,"<div class = ""display"">yogurt with granola & strawberries</div><br><br><img src =https://voices.uchicago.edu/bakkourlab/files/2019/04/Yogurt-with-granola-strawberries.jpg></img>",96.1488652,yogurt with granola & strawberries,0.365853659,""""
106,1,"""","""",html-keyboard-response,265,1997107,0.0-7.130-0.130,null,null,view_stimuli,"<div class = ""display"">triscuit</div>","""","""","""",""""
106,1,"""","""",html-slider-response,266,2000887,0.0-7.130-1.130,3775.4,36,rep_rating,"<div class = ""display"">triscuit</div><br><br><img src =https://voices.uchicago.edu/bakkourlab/files/2019/04/Triscuit.jpg></img>",22.35242988,triscuit,0.2,""""
106,1,"""","""",html-keyboard-response,267,2004924,0.0-7.131-0.131,null,null,view_stimuli,"<div class = ""display"">vanilla ice cream</div>","""","""","""",""""
106,1,"""","""",html-slider-response,268,2008641,0.0-7.131-1.131,3712.1,6,rep_rating,"<div class = ""display"">vanilla ice cream</div><br><br><img src =https://voices.uchicago.edu/bakkourlab/files/2019/04/Breyers-Vanilla-Ice-cream.jpg></img>",10.80673731,vanilla ice cream,0.463414634,""""
106,1,"""","""",html-keyboard-response,269,2013576,0.0-7.132-0.132,null,null,view_stimuli,"<div class = ""display"">chicken fingers</div>","""","""","""",""""
106,1,"""","""",html-slider-response,270,2025975,0.0-7.132-1.132,12393.5,78,rep_rating,"<div class = ""display"">chicken fingers</div><br><br><img src =https://voices.uchicago.edu/bakkourlab/files/2019/04/Chicken-fingers-Perdue-Crispy-Chicken-Strips.jpg></img>",14.95175384,chicken fingers,0.463414634,""""
106,1,"""","""",html-keyboard-response,271,2030000,0.0-7.133-0.133,null,null,view_stimuli,"<div class = ""display"">burrito</div>","""","""","""",""""
106,1,"""","""",html-slider-response,272,2036236,0.0-7.133-1.133,6232,0,rep_rating,"<div class = ""display"">burrito</div><br><br><img src =https://voices.uchicago.edu/bakkourlab/files/2019/04/Burrito-Amy-Bean-Cheese.jpg></img>",96.51483051,burrito,0.6,""""
106,1,"""","""",html-keyboard-response,273,2040255,0.0-7.134-0.134,null,null,view_stimuli,"<div class = ""display"">brownie</div>","""","""","""",""""
106,1,"""","""",html-slider-response,274,2043592,0.0-7.134-1.134,3331.7,32,rep_rating,"<div class = ""display"">brownie</div><br><br><img src =https://voices.uchicago.edu/bakkourlab/files/2019/04/Brownie.jpg></img>",75.32110296,brownie,0.487804878,""""
106,1,"""","""",html-keyboard-response,275,2047627,0.0-7.135-0.135,null,null,view_stimuli,"<div class = ""display"">saltine crackers</div>","""","""","""",""""
106,1,"""","""",html-slider-response,276,2049980,0.0-7.135-1.135,2347.6,88,rep_rating,"<div class = ""display"">saltine crackers</div><br><br><img src =https://voices.uchicago.edu/bakkourlab/files/2019/04/Saltine-crackers.jpg></img>",21.47675758,saltine crackers,-0.025,""""
106,1,"""","""",html-keyboard-response,277,2054004,0.0-7.136-0.136,null,null,view_stimuli,"<div class = ""display"">chicken nuggets</div>","""","""","""",""""
106,1,"""","""",html-slider-response,278,2058636,0.0-7.136-1.136,4627.6,59,rep_rating,"<div class = ""display"">chicken nuggets</div><br><br><img src =https://voices.uchicago.edu/bakkourlab/files/2019/04/Chicken-nuggets-w-BBQ-Sauce.jpg></img>",89.13439596,chicken nuggets,0.577777778,""""
106,1,"""","""",html-keyboard-response,279,2062667,0.0-7.137-0.137,null,null,view_stimuli,"<div class = ""display"">omelet</div>","""","""","""",""""
106,1,"""","""",html-slider-response,280,2068367,0.0-7.137-1.137,5696.9,0,rep_rating,"<div class = ""display"">omelet</div><br><br><img src =https://voices.uchicago.edu/bakkourlab/files/2019/04/Omelet-plain.jpg></img>",62.16469174,omelet,0.571428571,""""
106,1,"""","""",survey-html-form,281,2086021,0.0-8.0,17631.8,"{""age"":""30"",""gender"":""Female"",""race"":""White"",""vegetarian"":""No"",""allergy"":""No"",""allergy item"":""}",completion,"""","""","""","""",k6wn5bsm
106,1,"""","""",html-button-response,282,2104103,0.0-9.0,18076.4,0,completion,"<p>Congratulations! This is the end of the experiment. Thank you for participating!</p>        <p>Your survey completion code is <b>k6wn5bsm</b>. Please copy and paste this code to your Amazon Mechanical Turk HIT to receive credit for your participation.</p>        <p>Be sure to copy the code above <b>before</b> you click ""Finish"" below.</p>        <p>You have to <b>Click ""Finish""</b> to complete the experiment and submit your work.</p>        <p>Click ""Finish"" to leave the experiment.</p>","""","""","""",k6wn5bsm
133,1,TRUE,FALSE,preload,0,7386,0.0-0.0,"""","""","""","""","""","""","""",""""
133,1,"""","""",survey-html-form,1,23061,0.0-1.0,15669.3,"{""age_year"":""1993"",""age_month"":""7""}",age_check,"""","""","""","""",""""
133,1,"""","""",html-keyboard-response,2,57103,0.0-3.0,34038.4,j,instructions,"<p class=""title"">Experiment</b></p>      	<p class=""instruct"">During the task, you will view a stream of word(s), and each will be displayed for 4 seconds. Please picture the food depicted by the word in your mind on a white plate. Then you will view an image of that food item. </p>        <p class=""instruct"">Please rate how much the image on the screen matches the food you depicted in your mind. You will rate each image on a scale from 0 to 10, with 0 being ‘does not match all’ and 10 being ‘perfect match’.</p>        <p class=""instruct"">There are no right answers. Please rate only based on your depiction of the food in your mind.</p>        <p class=""instruct"">Press ""j"" or ""k"" to continue.","""","""","""",""""
133,1,"""","""",survey-html-form,3,128539,0.0-4.0-0.0,71430.2,"[{""name"":""quiz1"",""value"":""Correct""},{""name"":""quiz2"",""value"":""Correct""}]",attention_check,"""","""","""","""",""""
133,1,"""","""",html-keyboard-response,4,132705,0.0-5.0-0.0,4162.6, ,quiz_complete,You successfully completed the quiz! Press any key to begin the task.,"""","""","""",""""
133,1,"""","""",html-keyboard-response,5,136712,0.0-7.0-0.0,null,null,view_stimuli,"<div class = ""display"">olives</div>","""","""","""",""""
133,1,"""","""",html-slider-response,6,145910,0.0-7.0-1.0,9194,65,rep_rating,"<div class = ""display"">olives</div><br><br><img src =https://voices.uchicago.edu/bakkourlab/files/2019/04/Olives-green-withpimento.jpg></img>",89.43580188,olives,0.390243902,""""
133,1,"""","""",html-keyboard-response,7,149917,0.0-7.1-0.1,null,null,view_stimuli,"<div class = ""display"">black beans with rice</div>","""","""","""",""""
133,1,"""","""",html-slider-response,8,158861,0.0-7.1-1.1,8942.3,73,rep_rating,"<div class = ""display"">black beans with rice</div><br><br><img src =https://voices.uchicago.edu/bakkourlab/files/2019/04/Black-Beans-with-rice.jpg></img>",3.821921965,black beans with rice,0.380952381,""""
133,1,"""","""",html-keyboard-response,9,162864,0.0-7.2-0.2,null,null,view_stimuli,"<div class = ""display"">chicken fingers</div>","""","""","""",""""
133,1,"""","""",html-slider-response,10,169327,0.0-7.2-1.2,6461.7,96,rep_rating,"<div class = ""display"">chicken fingers</div><br><br><img src =https://voices.uchicago.edu/bakkourlab/files/2019/04/Chicken-fingers-Perdue-Crispy-Chicken-Strips.jpg></img>",46.71924834,chicken fingers,0.463414634,""""
133,1,"""","""",html-keyboard-response,11,173333,0.0-7.3-0.3,null,null,view_stimuli,"<div class = ""display"">baguette with olive oil</div>","""","""","""",""""
133,1,"""","""",html-slider-response,12,180294,0.0-7.3-1.3,6959.5,81,rep_rating,"<div class = ""display"">baguette with olive oil</div><br><br><img src =https://voices.uchicago.edu/bakkourlab/files/2019/04/Baguette-with-olive-oil.jpg></img>",33.20198258,baguette with olive oil,0.4,""""
133,1,"""","""",html-keyboard-response,13,184298,0.0-7.4-0.4,null,null,view_stimuli,"<div class = ""display"">ice cream sundae</div>","""","""","""",""""
133,1,"""","""",html-slider-response,14,188561,0.0-7.4-1.4,4260.3,93,rep_rating,"<div class = ""display"">ice cream sundae</div><br><br><img src =https://voices.uchicago.edu/bakkourlab/files/2019/04/Ice-cream-sundae-ice-cream-whip-cream-cherry.jpg></img>",62.96811711,ice cream sundae,0.511111111,""""
133,1,"""","""",html-keyboard-response,15,192566,0.0-7.5-0.5,null,null,view_stimuli,"<div class = ""display"">chicken nuggets</div>","""","""","""",""""
133,1,"""","""",html-slider-response,16,197576,0.0-7.5-1.5,5007.8,83,rep_rating,"<div class = ""display"">chicken nuggets</div><br><br><img src =https://voices.uchicago.edu/bakkourlab/files/2019/04/Chicken-nuggets-w-BBQ-Sauce.jpg></img>",51.92732146,chicken nuggets,0.577777778,""""
133,1,"""","""",html-keyboard-response,17,201584,0.0-7.6-0.6,null,null,view_stimuli,"<div class = ""display"">mac and cheese</div>","""","""","""",""""
133,1,"""","""",html-slider-response,18,206155,0.0-7.6-1.6,4568.5,83,rep_rating,"<div class = ""display"">mac and cheese</div><br><br><img src =https://voices.uchicago.edu/bakkourlab/files/2019/04/Mac-and-cheese-Stouffers.jpg></img>",65.04319326,mac and cheese,0.475,""""
133,1,"""","""",html-keyboard-response,19,210160,0.0-7.7-0.7,null,null,view_stimuli,"<div class = ""display"">raisins</div>","""","""","""",""""
133,1,"""","""",html-slider-response,20,220330,0.0-7.7-1.7,10167.2,65,rep_rating,"<div class = ""display"">raisins</div><br><br><img src =https://voices.uchicago.edu/bakkourlab/files/2019/04/Raisins.jpg></img>",83.93406815,raisins,0.62,""""
133,1,"""","""",html-keyboard-response,21,224336,0.0-7.8-0.8,null,null,view_stimuli,"<div class = ""display"">chicken noodle soup</div>","""","""","""",""""
133,1,"""","""",html-slider-response,22,235584,0.0-7.8-1.8,11246.1,96,rep_rating,"<div class = ""display"">chicken noodle soup</div><br><br><img src =https://voices.uchicago.edu/bakkourlab/files/2019/04/Chicken-noodle-soup-Campbells-Classic.jpg></img>",49.63356328,chicken noodle soup,0.523809524,""""
133,1,"""","""",html-keyboard-response,23,239590,0.0-7.9-0.9,null,null,view_stimuli,"<div class = ""display"">sour patch kids</div>","""","""","""",""""
133,1,"""","""",html-slider-response,24,247490,0.0-7.9-1.9,7897.5,56,rep_rating,"<div class = ""display"">sour patch kids</div><br><br><img src =https://voices.uchicago.edu/bakkourlab/files/2019/04/Sour-patch-kids-candy.jpg></img>",48.72298042,sour patch kids,0.476190476,""""
133,1,"""","""",html-keyboard-response,25,251495,0.0-7.10-0.10,null,null,view_stimuli,"<div class = ""display"">grapes</div>","""","""","""",""""
133,1,"""","""",html-slider-response,26,257912,0.0-7.10-1.10,6415.8,61,rep_rating,"<div class = ""display"">grapes</div><br><br><img src =https://voices.uchicago.edu/bakkourlab/files/2019/04/Grapes.jpg></img>",27.59740674,grapes,0.6,""""
133,1,"""","""",html-keyboard-response,27,261922,0.0-7.11-0.11,null,null,view_stimuli,"<div class = ""display"">oreos</div>","""","""","""",""""
133,1,"""","""",html-slider-response,28,267397,0.0-7.11-1.11,5472.3,88,rep_rating,"<div class = ""display"">oreos</div><br><br><img src =https://voices.uchicago.edu/bakkourlab/files/2019/04/Oreos.jpg></img>",24.04985463,oreos,0.536585366,""""
133,1,"""","""",html-keyboard-response,29,271404,0.0-7.12-0.12,null,null,view_stimuli,"<div class = ""display"">croissant</div>","""","""","""",""""
133,1,"""","""",html-slider-response,30,277581,0.0-7.12-1.12,6175,99,rep_rating,"<div class = ""display"">croissant</div><br><br><img src =https://voices.uchicago.edu/bakkourlab/files/2019/04/Croissant-plain.jpg></img>",65.97162279,croissant,0.55,""""
133,1,"""","""",html-keyboard-response,31,281586,0.0-7.13-0.13,null,null,view_stimuli,"<div class = ""display"">green beans</div>","""","""","""",""""
133,1,"""","""",html-slider-response,32,292981,0.0-7.13-1.13,11392.6,26,rep_rating,"<div class = ""display"">green beans</div><br><br><img src =https://voices.uchicago.edu/bakkourlab/files/2019/04/Green-beans-raw.jpg></img>",63.93665331,green beans,0.636363636,""""
133,1,"""","""",html-keyboard-response,33,296987,0.0-7.14-0.14,null,null,view_stimuli,"<div class = ""display"">kiwi</div>","""","""","""",""""
133,1,"""","""",html-slider-response,34,306940,0.0-7.14-1.14,9950.8,2,rep_rating,"<div class = ""display"">kiwi</div><br><br><img src =https://voices.uchicago.edu/bakkourlab/files/2019/04/Kiwi.jpg></img>",4.005467941,kiwi,0.463414634,""""
133,1,"""","""",html-keyboard-response,35,310944,0.0-7.15-0.15,null,null,view_stimuli,"<div class = ""display"">granola bar</div>","""","""","""",""""
133,1,"""","""",html-slider-response,36,315101,0.0-7.15-1.15,4154.3,52,rep_rating,"<div class = ""display"">granola bar</div><br><br><img src =https://voices.uchicago.edu/bakkourlab/files/2019/04/Granola-bar-Nature-Valley-Crunchy.jpg></img>",40.59378868,granola bar,0.285714286,""""
133,1,"""","""",html-keyboard-response,37,319105,0.0-7.16-0.16,null,null,view_stimuli,"<div class = ""display"">bell pepper</div>","""","""","""",""""
133,1,"""","""",html-slider-response,38,324337,0.0-7.16-1.16,5229.4,59,rep_rating,"<div class = ""display"">bell pepper</div><br><br><img src =https://voices.uchicago.edu/bakkourlab/files/2019/04/Red-bell-pepper.jpg></img>",54.52526688,bell pepper,0.674418605,""""
133,1,"""","""",html-keyboard-response,39,328350,0.0-7.17-0.17,null,null,view_stimuli,"<div class = ""display"">burrito</div>","""","""","""",""""
133,1,"""","""",html-slider-response,40,336919,0.0-7.17-1.17,8567,85,rep_rating,"<div class = ""display"">burrito</div><br><br><img src =https://voices.uchicago.edu/bakkourlab/files/2019/04/Burrito-Amy-Bean-Cheese.jpg></img>",42.60672934,burrito,0.6,""""
133,1,"""","""",html-keyboard-response,41,340923,0.0-7.18-0.18,null,null,view_stimuli,"<div class = ""display"">popcorn</div>","""","""","""",""""
133,1,"""","""",html-slider-response,42,348703,0.0-7.18-1.18,7777.7,81,rep_rating,"<div class = ""display"">popcorn</div><br><br><img src =https://voices.uchicago.edu/bakkourlab/files/2019/04/Air-popped-popcorn.jpg></img>",99.66989875,popcorn,0.292682927,""""
133,1,"""","""",html-keyboard-response,43,352709,0.0-7.19-0.19,null,null,view_stimuli,"<div class = ""display"">melba toast</div>","""","""","""",""""
133,1,"""","""",html-slider-response,44,361152,0.0-7.19-1.19,8440.9,82,rep_rating,"<div class = ""display"">melba toast</div><br><br><img src =https://voices.uchicago.edu/bakkourlab/files/2019/04/Melba-Toast-rye-Old-London.jpg></img>",81.90999345,melba toast,0.3,""""
133,1,"""","""",html-keyboard-response,45,365157,0.0-7.20-0.20,null,null,view_stimuli,"<div class = ""display"">rigatoni and sauce</div>","""","""","""",""""
133,1,"""","""",html-slider-response,46,369362,0.0-7.20-1.20,4202.8,87,rep_rating,"<div class = ""display"">rigatoni and sauce</div><br><br><img src =https://voices.uchicago.edu/bakkourlab/files/2019/04/Rigatoni-withtomato-sauce.jpg></img>",68.68558532,rigatoni and sauce,0.475,""""
133,1,"""","""",html-keyboard-response,47,373366,0.0-7.21-0.21,null,null,view_stimuli,"<div class = ""display"">chocolate chip cookies</div>","""","""","""",""""
133,1,"""","""",html-slider-response,48,380098,0.0-7.21-1.21,6728.8,81,rep_rating,"<div class = ""display"">chocolate chip cookies</div><br><br><img src =https://voices.uchicago.edu/bakkourlab/files/2019/04/Choc-Chip-cookies-Entenmanns.jpg></img>",8.502249961,chocolate chip cookies,0.35,""""
133,1,"""","""",html-keyboard-response,49,384103,0.0-7.22-0.22,null,null,view_stimuli,"<div class = ""display"">cocktail shrimp</div>","""","""","""",""""
133,1,"""","""",html-slider-response,50,391637,0.0-7.22-1.22,7532.3,77,rep_rating,"<div class = ""display"">cocktail shrimp</div><br><br><img src =https://voices.uchicago.edu/bakkourlab/files/2019/04/Cocktail-shrimp.jpg></img>",8.217056799,cocktail shrimp,0.575,""""
133,1,"""","""",html-keyboard-response,51,395644,0.0-7.23-0.23,null,null,view_stimuli,"<div class = ""display"">blueberries</div>","""","""","""",""""
133,1,"""","""",html-slider-response,52,402043,0.0-7.23-1.23,6397.4,54,rep_rating,"<div class = ""display"">blueberries</div><br><br><img src =https://voices.uchicago.edu/bakkourlab/files/2019/04/Blueberries.jpg></img>",32.12621598,blueberries,0.609756098,""""
133,1,"""","""",html-keyboard-response,53,406048,0.0-7.24-0.24,null,null,view_stimuli,"<div class = ""display"">hash browns</div>","""","""","""",""""
133,1,"""","""",html-slider-response,54,410412,0.0-7.24-1.24,4362.7,74,rep_rating,"<div class = ""display"">hash browns</div><br><br><img src =https://voices.uchicago.edu/bakkourlab/files/2019/04/Hash-browns.jpg></img>",29.47242317,hash browns,0.292682927,""""
133,1,"""","""",html-keyboard-response,55,414417,0.0-7.25-0.25,null,null,view_stimuli,"<div class = ""display"">craisins</div>","""","""","""",""""
133,1,"""","""",html-slider-response,56,419267,0.0-7.25-1.25,4848.9,51,rep_rating,"<div class = ""display"">craisins</div><br><br><img src =https://voices.uchicago.edu/bakkourlab/files/2019/04/Craisins-Ocean-Spray.jpg></img>",40.72986175,craisins,0.595238095,""""
133,1,"""","""",html-keyboard-response,57,423271,0.0-7.26-0.26,null,null,view_stimuli,"<div class = ""display"">salad</div>","""","""","""",""""
133,1,"""","""",html-slider-response,58,428791,0.0-7.26-1.26,5518.7,52,rep_rating,"<div class = ""display"">salad</div><br><br><img src =https://voices.uchicago.edu/bakkourlab/files/2019/04/Lettuce-salad.jpg></img>",21.91940673,salad,0.268292683,""""
133,1,"""","""",html-keyboard-response,59,433777,0.0-7.27-0.27,null,null,view_stimuli,"<div class = ""display"">yogurt pretzels</div>","""","""","""",""""
133,1,"""","""",html-slider-response,60,449174,0.0-7.27-1.27,15394.2,65,rep_rating,"<div class = ""display"">yogurt pretzels</div><br><br><img src =https://voices.uchicago.edu/bakkourlab/files/2019/04/Yogurt-pretzels.jpg></img>",54.66108153,yogurt pretzels,0.536585366,""""
133,1,"""","""",html-keyboard-response,61,453178,0.0-7.28-0.28,null,null,view_stimuli,"<div class = ""display"">egg salad</div>","""","""","""",""""
133,1,"""","""",html-slider-response,62,457816,0.0-7.28-1.28,4635.7,56,rep_rating,"<div class = ""display"">egg salad</div><br><br><img src =https://voices.uchicago.edu/bakkourlab/files/2019/04/Egg-salad.jpg></img>",14.54461323,egg salad,0.23255814,""""
133,1,"""","""",html-keyboard-response,63,461820,0.0-7.29-0.29,null,null,view_stimuli,"<div class = ""display"">edamame</div>","""","""","""",""""
133,1,"""","""",html-slider-response,64,469071,0.0-7.29-1.29,7248.9,16,rep_rating,"<div class = ""display"">edamame</div><br><br><img src =https://voices.uchicago.edu/bakkourlab/files/2019/04/Edamame.jpg></img>",24.02106019,edamame,0.390243902,""""
133,1,"""","""",html-keyboard-response,65,473076,0.0-7.30-0.30,null,null,view_stimuli,"<div class = ""display"">banana</div>","""","""","""",""""
133,1,"""","""",html-slider-response,66,478892,0.0-7.30-1.30,5814.4,33,rep_rating,"<div class = ""display"">banana</div><br><br><img src =https://voices.uchicago.edu/bakkourlab/files/2019/04/Banana.jpg></img>",15.17015987,banana,0.707317073,""""
133,1,"""","""",html-keyboard-response,67,482902,0.0-7.31-0.31,null,null,view_stimuli,"<div class = ""display"">babybel cheese with crackers</div>","""","""","""",""""
133,1,"""","""",html-slider-response,68,494874,0.0-7.31-1.31,11969.2,54,rep_rating,"<div class = ""display"">babybel cheese with crackers</div><br><br><img src =https://voices.uchicago.edu/bakkourlab/files/2019/04/Baby-Bell-cheese-withcrackers.jpg></img>",48.61386306,babybel cheese with crackers,0.365853659,""""
133,1,"""","""",html-keyboard-response,69,498918,0.0-7.32-0.32,null,null,view_stimuli,"<div class = ""display"">sweet potato</div>","""","""","""",""""
133,1,"""","""",html-slider-response,70,504107,0.0-7.32-1.32,5186.4,48,rep_rating,"<div class = ""display"">sweet potato</div><br><br><img src =https://voices.uchicago.edu/bakkourlab/files/2019/04/Sweet-Potato.jpg></img>",20.4441003,sweet potato,0.585365854,""""
133,1,"""","""",html-keyboard-response,71,508112,0.0-7.33-0.33,null,null,view_stimuli,"<div class = ""display"">hershey kisses</div>","""","""","""",""""
133,1,"""","""",html-slider-response,72,513618,0.0-7.33-1.33,5504.1,82,rep_rating,"<div class = ""display"">hershey kisses</div><br><br><img src =https://voices.uchicago.edu/bakkourlab/files/2019/04/Hersheys-Kisses.jpg></img>",64.86648238,hershey kisses,0.441860465,""""
133,1,"""","""",html-keyboard-response,73,517622,0.0-7.34-0.34,null,null,view_stimuli,"<div class = ""display"">mashed potatoes</div>","""","""","""",""""
133,1,"""","""",html-slider-response,74,522587,0.0-7.34-1.34,4963.4,61,rep_rating,"<div class = ""display"">mashed potatoes</div><br><br><img src =https://voices.uchicago.edu/bakkourlab/files/2019/04/Mashed-potatoes-withbutter.jpg></img>",23.23842836,mashed potatoes,0.476190476,""""
133,1,"""","""",html-keyboard-response,75,526595,0.0-7.35-0.35,null,null,view_stimuli,"<div class = ""display"">rice cakes</div>","""","""","""",""""
133,1,"""","""",html-slider-response,76,530838,0.0-7.35-1.35,4241.3,76,rep_rating,"<div class = ""display"">rice cakes</div><br><br><img src =https://voices.uchicago.edu/bakkourlab/files/2019/04/Rice-Cakes.jpg></img>",48.96877856,rice cakes,0.386363636,""""
133,1,"""","""",html-keyboard-response,77,534843,0.0-7.36-0.36,null,null,view_stimuli,"<div class = ""display"">apple</div>","""","""","""",""""
133,1,"""","""",html-slider-response,78,542606,0.0-7.36-1.36,7760.9,85,rep_rating,"<div class = ""display"">apple</div><br><br><img src =https://voices.uchicago.edu/bakkourlab/files/2019/04/Apple.jpg></img>",70.07552335,apple,0.609756098,""""
133,1,"""","""",html-keyboard-response,79,546616,0.0-7.37-0.37,null,null,view_stimuli,"<div class = ""display"">pop tarts</div>","""","""","""",""""
133,1,"""","""",html-slider-response,80,553327,0.0-7.37-1.37,6708,89,rep_rating,"<div class = ""display"">pop tarts</div><br><br><img src =https://voices.uchicago.edu/bakkourlab/files/2019/04/Pop-Tart-strawberry-frosted.jpg></img>",83.08307056,pop tarts,0.380952381,""""
133,1,"""","""",html-keyboard-response,81,557339,0.0-7.38-0.38,null,null,view_stimuli,"<div class = ""display"">skim milk</div>","""","""","""",""""
133,1,"""","""",html-slider-response,82,568735,0.0-7.38-1.38,11393.5,96,rep_rating,"<div class = ""display"">skim milk</div><br><br><img src =https://voices.uchicago.edu/bakkourlab/files/2019/04/Skim-milk.jpg></img>",88.75067853,skim milk,0.418604651,""""
133,1,"""","""",html-keyboard-response,83,572740,0.0-7.39-0.39,null,null,view_stimuli,"<div class = ""display"">grilled cheese sandwich</div>","""","""","""",""""
133,1,"""","""",html-slider-response,84,577240,0.0-7.39-1.39,4498.3,87,rep_rating,"<div class = ""display"">grilled cheese sandwich</div><br><br><img src =https://voices.uchicago.edu/bakkourlab/files/2019/04/Grilled-cheese.jpg></img>",72.83318704,grilled cheese sandwich,0.463414634,""""
133,1,"""","""",html-keyboard-response,85,581245,0.0-7.40-0.40,null,null,view_stimuli,"<div class = ""display"">broccoli and cauliflower</div>","""","""","""",""""
133,1,"""","""",html-slider-response,86,588353,0.0-7.40-1.40,7106.1,59,rep_rating,"<div class = ""display"">broccoli and cauliflower</div><br><br><img src =https://voices.uchicago.edu/bakkourlab/files/2019/04/Broccoli-Cauliflower-raw.jpg></img>",73.72785686,broccoli and cauliflower,0.425,""""
133,1,"""","""",html-keyboard-response,87,592359,0.0-7.41-0.41,null,null,view_stimuli,"<div class = ""display"">chocolate trail mix</div>","""","""","""",""""
133,1,"""","""",html-slider-response,88,597936,0.0-7.41-1.41,5575.5,72,rep_rating,"<div class = ""display"">chocolate trail mix</div><br><br><img src =https://voices.uchicago.edu/bakkourlab/files/2019/04/Chocolate-trail-mix.jpg></img>",18.64965155,chocolate trail mix,0.476190476,""""
133,1,"""","""",html-keyboard-response,89,601942,0.0-7.42-0.42,null,null,view_stimuli,"<div class = ""display"">wheat bread</div>","""","""","""",""""
133,1,"""","""",html-slider-response,90,608152,0.0-7.42-1.42,6208.7,80,rep_rating,"<div class = ""display"">wheat bread</div><br><br><img src =https://voices.uchicago.edu/bakkourlab/files/2019/04/Wheat-Bread-Pepperidge-Farm-100-WW.jpg></img>",29.77720346,wheat bread,0.404255319,""""
133,1,"""","""",html-keyboard-response,91,612158,0.0-7.43-0.43,null,null,view_stimuli,"<div class = ""display"">chocolate covered pretzels</div>","""","""","""",""""
133,1,"""","""",html-slider-response,92,618299,0.0-7.43-1.43,6138.4,74,rep_rating,"<div class = ""display"">chocolate covered pretzels</div><br><br><img src =https://voices.uchicago.edu/bakkourlab/files/2019/04/Chocolate-dark-covered-pretzels-Flipz.jpg></img>",41.64984269,chocolate covered pretzels,0.5,""""
133,1,"""","""",html-keyboard-response,93,622306,0.0-7.44-0.44,null,null,view_stimuli,"<div class = ""display"">cheese nachos</div>","""","""","""",""""
133,1,"""","""",html-slider-response,94,629858,0.0-7.44-1.44,7549.9,99,rep_rating,"<div class = ""display"">cheese nachos</div><br><br><img src =https://voices.uchicago.edu/bakkourlab/files/2019/04/Cheese-Nachos.jpg></img>",37.28966088,cheese nachos,0.658536585,""""
133,1,"""","""",html-keyboard-response,95,633865,0.0-7.45-0.45,null,null,view_stimuli,"<div class = ""display"">sun chips</div>","""","""","""",""""
133,1,"""","""",html-slider-response,96,638701,0.0-7.45-1.45,4834,83,rep_rating,"<div class = ""display"">sun chips</div><br><br><img src =https://voices.uchicago.edu/bakkourlab/files/2019/04/Sun-Chips.jpg></img>",9.263445547,sun chips,0.404761905,""""
133,1,"""","""",html-keyboard-response,97,642709,0.0-7.46-0.46,null,null,view_stimuli,"<div class = ""display"">grapefruit</div>","""","""","""",""""
133,1,"""","""",html-slider-response,98,647867,0.0-7.46-1.46,5156.7,68,rep_rating,"<div class = ""display"">grapefruit</div><br><br><img src =https://voices.uchicago.edu/bakkourlab/files/2019/04/Grapefruit.jpg></img>",11.7102305,grapefruit,0.55,""""
133,1,"""","""",html-keyboard-response,99,651874,0.0-7.47-0.47,null,null,view_stimuli,"<div class = ""display"">saltine crackers</div>","""","""","""",""""
133,1,"""","""",html-slider-response,100,656621,0.0-7.47-1.47,4743.3,79,rep_rating,"<div class = ""display"">saltine crackers</div><br><br><img src =https://voices.uchicago.edu/bakkourlab/files/2019/04/Saltine-crackers.jpg></img>",64.99980298,saltine crackers,-0.025,""""
133,1,"""","""",html-keyboard-response,101,660625,0.0-7.48-0.48,null,null,view_stimuli,"<div class = ""display"">peanut butter with banana</div>","""","""","""",""""
133,1,"""","""",html-slider-response,102,672023,0.0-7.48-1.48,11395.9,84,rep_rating,"<div class = ""display"">peanut butter with banana</div><br><br><img src =https://voices.uchicago.edu/bakkourlab/files/2019/04/Peanut-butter-1.5-oz-wt-withbanana-small.jpg></img>",13.84542701,peanut butter with banana,0.681818182,""""
133,1,"""","""",html-keyboard-response,103,676040,0.0-7.49-0.49,null,null,view_stimuli,"<div class = ""display"">turkey breast</div>","""","""","""",""""
133,1,"""","""",html-slider-response,104,682734,0.0-7.49-1.49,6692.5,80,rep_rating,"<div class = ""display"">turkey breast</div><br><br><img src =https://voices.uchicago.edu/bakkourlab/files/2019/04/Turkey-breast-Oscar-Mayer-Deli-Select.jpg></img>",66.92193962,turkey breast,0.512195122,""""
133,1,"""","""",html-keyboard-response,105,686740,0.0-7.50-0.50,null,null,view_stimuli,"<div class = ""display"">american cheese</div>","""","""","""",""""
133,1,"""","""",html-slider-response,106,691327,0.0-7.50-1.50,4584.5,76,rep_rating,"<div class = ""display"">american cheese</div><br><br><img src =https://voices.uchicago.edu/bakkourlab/files/2019/04/American-cheese.jpg></img>",49.84841308,american cheese,0.545454545,""""
133,1,"""","""",html-keyboard-response,107,695337,0.0-7.51-0.51,null,null,view_stimuli,"<div class = ""display"">minestrone soup</div>","""","""","""",""""
133,1,"""","""",html-slider-response,108,700063,0.0-7.51-1.51,4724.9,63,rep_rating,"<div class = ""display"">minestrone soup</div><br><br><img src =https://voices.uchicago.edu/bakkourlab/files/2019/04/Minestrone-Soup-chunky-.jpg></img>",10.11157991,minestrone soup,0.5,""""
133,1,"""","""",html-keyboard-response,109,704068,0.0-7.52-0.52,null,null,view_stimuli,"<div class = ""display"">soy crisps</div>","""","""","""",""""
133,1,"""","""",html-slider-response,110,709842,0.0-7.52-1.52,5771.3,70,rep_rating,"<div class = ""display"">soy crisps</div><br><br><img src =https://voices.uchicago.edu/bakkourlab/files/2019/04/Soy-crisps.jpg></img>",64.40813256,soy crisps,0.317073171,""""
133,1,"""","""",html-keyboard-response,111,713849,0.0-7.53-0.53,null,null,view_stimuli,"<div class = ""display"">grilled chicken strips</div>","""","""","""",""""
133,1,"""","""",html-slider-response,112,718634,0.0-7.53-1.53,4781.1,66,rep_rating,"<div class = ""display"">grilled chicken strips</div><br><br><img src =https://voices.uchicago.edu/bakkourlab/files/2019/04/Grilled-chicken-strips.jpg></img>",37.16043095,grilled chicken strips,0.414634146,""""
133,1,"""","""",html-keyboard-response,113,722641,0.0-7.54-0.54,null,null,view_stimuli,"<div class = ""display"">strawberries</div>","""","""","""",""""
133,1,"""","""",html-slider-response,114,732671,0.0-7.54-1.54,10028.1,92,rep_rating,"<div class = ""display"">strawberries</div><br><br><img src =https://voices.uchicago.edu/bakkourlab/files/2019/04/Strawberries.jpg></img>",30.97567207,strawberries,0.380952381,""""
133,1,"""","""",html-keyboard-response,115,736680,0.0-7.55-0.55,null,null,view_stimuli,"<div class = ""display"">salami</div>","""","""","""",""""
133,1,"""","""",html-slider-response,116,744815,0.0-7.55-1.55,8133.7,40,rep_rating,"<div class = ""display"">salami</div><br><br><img src =https://voices.uchicago.edu/bakkourlab/files/2019/04/Salami.jpg></img>",94.3981395,salami,0.475,""""
133,1,"""","""",html-keyboard-response,117,748821,0.0-7.56-0.56,null,null,view_stimuli,"<div class = ""display"">steak</div>","""","""","""",""""
133,1,"""","""",html-slider-response,118,755546,0.0-7.56-1.56,6722.5,82,rep_rating,"<div class = ""display"">steak</div><br><br><img src =https://voices.uchicago.edu/bakkourlab/files/2019/04/Steak-T-bone.jpg></img>",18.39637244,steak,0.681818182,""""
133,1,"""","""",html-keyboard-response,119,759558,0.0-7.57-0.57,null,null,view_stimuli,"<div class = ""display"">corn on the cob</div>","""","""","""",""""
133,1,"""","""",html-slider-response,120,763700,0.0-7.57-1.57,4141.1,49,rep_rating,"<div class = ""display"">corn on the cob</div><br><br><img src =https://voices.uchicago.edu/bakkourlab/files/2019/04/Corn-on-Cob.jpg></img>",29.96390546,corn on the cob,0.547619048,""""
133,1,"""","""",html-keyboard-response,121,767709,0.0-7.58-0.58,null,null,view_stimuli,"<div class = ""display"">cheerios</div>","""","""","""",""""
133,1,"""","""",html-slider-response,122,779460,0.0-7.58-1.58,11748.8,85,rep_rating,"<div class = ""display"">cheerios</div><br><br><img src =https://voices.uchicago.edu/bakkourlab/files/2019/04/Cheerios-dry.jpg></img>",69.44483306,cheerios,0.365853659,""""
133,1,"""","""",html-keyboard-response,123,783465,0.0-7.59-0.59,null,null,view_stimuli,"<div class = ""display"">roasted potato</div>","""","""","""",""""
133,1,"""","""",html-slider-response,124,789075,0.0-7.59-1.59,5608.1,99,rep_rating,"<div class = ""display"">roasted potato</div><br><br><img src =https://voices.uchicago.edu/bakkourlab/files/2019/04/Roasted-potato.jpg></img>",87.875606,roasted potato,0.452380952,""""
133,1,"""","""",html-keyboard-response,125,793081,0.0-7.60-0.60,null,null,view_stimuli,"<div class = ""display"">trail mix</div>","""","""","""",""""
133,1,"""","""",html-slider-response,126,800644,0.0-7.60-1.60,7560.7,97,rep_rating,"<div class = ""display"">trail mix</div><br><br><img src =https://voices.uchicago.edu/bakkourlab/files/2019/04/Trail-mix.jpg></img>",50.31595016,trail mix,0.4,""""
133,1,"""","""",html-keyboard-response,127,804651,0.0-7.61-0.61,null,null,view_stimuli,"<div class = ""display"">pickles</div>","""","""","""",""""
133,1,"""","""",html-slider-response,128,812615,0.0-7.61-1.61,7961.5,25,rep_rating,"<div class = ""display"">pickles</div><br><br><img src =https://voices.uchicago.edu/bakkourlab/files/2019/04/Pickles-dill.jpg></img>",59.65368713,pickles,0.523809524,""""
133,1,"""","""",html-keyboard-response,129,816622,0.0-7.62-0.62,null,null,view_stimuli,"<div class = ""display"">cherry tomatoes</div>","""","""","""",""""
133,1,"""","""",html-slider-response,130,833021,0.0-7.62-1.62,16397.5,84,rep_rating,"<div class = ""display"">cherry tomatoes</div><br><br><img src =https://voices.uchicago.edu/bakkourlab/files/2019/04/Cherry-tomatoes.jpg></img>",39.20746428,cherry tomatoes,0.65,""""
133,1,"""","""",html-keyboard-response,131,837026,0.0-7.63-0.63,null,null,view_stimuli,"<div class = ""display"">shredded wheat with milk</div>","""","""","""",""""
133,1,"""","""",html-slider-response,132,850926,0.0-7.63-1.63,13898.4,97,rep_rating,"<div class = ""display"">shredded wheat with milk</div><br><br><img src =https://voices.uchicago.edu/bakkourlab/files/2019/04/Shredded-wheat-1-biscuit-with-1-milk.jpg></img>",65.16676369,shredded wheat with milk,0.35,""""
133,1,"""","""",html-keyboard-response,133,854934,0.0-7.64-0.64,null,null,view_stimuli,"<div class = ""display"">cucumber</div>","""","""","""",""""
133,1,"""","""",html-slider-response,134,862765,0.0-7.64-1.64,7830,33,rep_rating,"<div class = ""display"">cucumber</div><br><br><img src =https://voices.uchicago.edu/bakkourlab/files/2019/04/Cucumber-slices.jpg></img>",72.29189829,cucumber,0.511111111,""""
133,1,"""","""",html-keyboard-response,135,866774,0.0-7.65-0.65,null,null,view_stimuli,"<div class = ""display"">fruit salad</div>","""","""","""",""""
133,1,"""","""",html-slider-response,136,871190,0.0-7.65-1.65,4412.8,84,rep_rating,"<div class = ""display"">fruit salad</div><br><br><img src =https://voices.uchicago.edu/bakkourlab/files/2019/04/Fruit-salad.jpg></img>",23.65404361,fruit salad,0.5,""""
133,1,"""","""",html-keyboard-response,137,875200,0.0-7.66-0.66,null,null,view_stimuli,"<div class = ""display"">cheese cubes</div>","""","""","""",""""
133,1,"""","""",html-slider-response,138,882200,0.0-7.66-1.66,6997,80,rep_rating,"<div class = ""display"">cheese cubes</div><br><br><img src =https://voices.uchicago.edu/bakkourlab/files/2019/04/Cheese-cubes-mild-cheddar.jpg></img>",47.84591197,cheese cubes,0.585365854,""""
133,1,"""","""",html-keyboard-response,139,886205,0.0-7.67-0.67,null,null,view_stimuli,"<div class = ""display"">plain bagel</div>","""","""","""",""""
133,1,"""","""",html-slider-response,140,893944,0.0-7.67-1.67,7736.7,81,rep_rating,"<div class = ""display"">plain bagel</div><br><br><img src =https://voices.uchicago.edu/bakkourlab/files/2019/04/Bagel-plain.jpg></img>",46.05412721,plain bagel,0.609756098,""""
133,1,"""","""",html-keyboard-response,141,897952,0.0-7.68-0.68,null,null,view_stimuli,"<div class = ""display"">spicy chicken caesar salad</div>","""","""","""",""""
133,1,"""","""",html-slider-response,142,903457,0.0-7.68-1.68,5503,79,rep_rating,"<div class = ""display"">spicy chicken caesar salad</div><br><br><img src =https://voices.uchicago.edu/bakkourlab/files/2019/04/Salad-Spicy-Chicken-Caesar-Wendys-no-dressing.jpg></img>",55.36809574,spicy chicken caesar salad,0.325581395,""""
133,1,"""","""",html-keyboard-response,143,907467,0.0-7.69-0.69,null,null,view_stimuli,"<div class = ""display"">lox</div>","""","""","""",""""
133,1,"""","""",html-slider-response,144,914820,0.0-7.69-1.69,7350.5,82,rep_rating,"<div class = ""display"">lox</div><br><br><img src =https://voices.uchicago.edu/bakkourlab/files/2019/04/Lox.jpg></img>",37.44833057,lox,0.476190476,""""
133,1,"""","""",html-keyboard-response,145,918826,0.0-7.70-0.70,null,null,view_stimuli,"<div class = ""display"">buttered popcorn</div>","""","""","""",""""
133,1,"""","""",html-slider-response,146,926025,0.0-7.70-1.70,7197.2,76,rep_rating,"<div class = ""display"">buttered popcorn</div><br><br><img src =https://voices.uchicago.edu/bakkourlab/files/2019/04/Yellow-popcorn.jpg></img>",45.88822904,buttered popcorn,0.463414634,""""
133,1,"""","""",html-keyboard-response,147,930033,0.0-7.71-0.71,null,null,view_stimuli,"<div class = ""display"">peanut butter</div>","""","""","""",""""
133,1,"""","""",html-slider-response,148,934252,0.0-7.71-1.71,4217,73,rep_rating,"<div class = ""display"">peanut butter</div><br><br><img src =https://voices.uchicago.edu/bakkourlab/files/2019/04/Peanut-butter.jpg></img>",50.9480555,peanut butter,0.772727273,""""
133,1,"""","""",html-keyboard-response,149,938261,0.0-7.72-0.72,null,null,view_stimuli,"<div class = ""display"">rice and beans</div>","""","""","""",""""
133,1,"""","""",html-slider-response,150,946237,0.0-7.72-1.72,7972.8,82,rep_rating,"<div class = ""display"">rice and beans</div><br><br><img src =https://voices.uchicago.edu/bakkourlab/files/2019/04/Rice-Beans.jpg></img>",52.74357125,rice and beans,0.431818182,""""
133,1,"""","""",html-keyboard-response,151,950245,0.0-7.73-0.73,null,null,view_stimuli,"<div class = ""display"">falafel with pita</div>","""","""","""",""""
133,1,"""","""",html-slider-response,152,955340,0.0-7.73-1.73,5093.7,100,rep_rating,"<div class = ""display"">falafel with pita</div><br><br><img src =https://voices.uchicago.edu/bakkourlab/files/2019/04/Falafel-withpita.jpg></img>",90.34094672,falafel with pita,0.227272727,""""
133,1,"""","""",html-keyboard-response,153,959349,0.0-7.74-0.74,null,null,view_stimuli,"<div class = ""display"">mushrooms</div>","""","""","""",""""
133,1,"""","""",html-slider-response,154,964278,0.0-7.74-1.74,4926.5,96,rep_rating,"<div class = ""display"">mushrooms</div><br><br><img src =https://voices.uchicago.edu/bakkourlab/files/2019/04/Mushrooms-raw.jpg></img>",82.60796905,mushrooms,0.428571429,""""
133,1,"""","""",html-keyboard-response,155,968288,0.0-7.75-0.75,null,null,view_stimuli,"<div class = ""display"">cupcakes</div>","""","""","""",""""
133,1,"""","""",html-slider-response,156,972869,0.0-7.75-1.75,4579.3,55,rep_rating,"<div class = ""display"">cupcakes</div><br><br><img src =https://voices.uchicago.edu/bakkourlab/files/2019/04/Cupcakes-mini-frosted.jpg></img>",40.07751134,cupcakes,0.674418605,""""
133,1,"""","""",html-keyboard-response,157,976879,0.0-7.76-0.76,null,null,view_stimuli,"<div class = ""display"">bagel with cream cheese</div>","""","""","""",""""
133,1,"""","""",html-slider-response,158,984328,0.0-7.76-1.76,7446.3,59,rep_rating,"<div class = ""display"">bagel with cream cheese</div><br><br><img src =https://voices.uchicago.edu/bakkourlab/files/2019/04/Bagel-cream-cheese.jpg></img>",42.09813914,bagel with cream cheese,0.340909091,""""
133,1,"""","""",html-keyboard-response,159,988338,0.0-7.77-0.77,null,null,view_stimuli,"<div class = ""display"">cherries</div>","""","""","""",""""
133,1,"""","""",html-slider-response,160,994921,0.0-7.77-1.77,6580.7,88,rep_rating,"<div class = ""display"">cherries</div><br><br><img src =https://voices.uchicago.edu/bakkourlab/files/2019/04/Cherries.jpg></img>",77.45345585,cherries,0.414634146,""""
133,1,"""","""",html-keyboard-response,161,998925,0.0-7.78-0.78,null,null,view_stimuli,"<div class = ""display"">triscuit</div>","""","""","""",""""
133,1,"""","""",html-slider-response,162,1004834,0.0-7.78-1.78,5905.6,70,rep_rating,"<div class = ""display"">triscuit</div><br><br><img src =https://voices.uchicago.edu/bakkourlab/files/2019/04/Triscuit.jpg></img>",62.29568957,triscuit,0.2,""""
133,1,"""","""",html-keyboard-response,163,1008842,0.0-7.79-0.79,null,null,view_stimuli,"<div class = ""display"">mango</div>","""","""","""",""""
133,1,"""","""",html-slider-response,164,1017954,0.0-7.79-1.79,9109.8,72,rep_rating,"<div class = ""display"">mango</div><br><br><img src =https://voices.uchicago.edu/bakkourlab/files/2019/04/Mango.jpg></img>",27.50889209,mango,0.595238095,""""
133,1,"""","""",html-keyboard-response,165,1021964,0.0-7.80-0.80,null,null,view_stimuli,"<div class = ""display"">kit kat</div>","""","""","""",""""
133,1,"""","""",html-slider-response,166,1026500,0.0-7.80-1.80,4533.1,100,rep_rating,"<div class = ""display"">kit kat</div><br><br><img src =https://voices.uchicago.edu/bakkourlab/files/2019/04/Kit-Kat.jpg></img>",75.97286829,kit kat,0.688888889,""""
133,1,"""","""",html-keyboard-response,167,1030510,0.0-7.81-0.81,null,null,view_stimuli,"<div class = ""display"">pizza</div>","""","""","""",""""
133,1,"""","""",html-slider-response,168,1038515,0.0-7.81-1.81,8003.2,88,rep_rating,"<div class = ""display"">pizza</div><br><br><img src =https://voices.uchicago.edu/bakkourlab/files/2019/04/Pizza-restaurant.jpg></img>",11.48168563,pizza,0.860465116,""""
133,1,"""","""",html-keyboard-response,169,1042523,0.0-7.82-0.82,null,null,view_stimuli,"<div class = ""display"">1% milk</div>","""","""","""",""""
133,1,"""","""",html-slider-response,170,1048349,0.0-7.82-1.82,5824.4,74,rep_rating,"<div class = ""display"">1% milk</div><br><br><img src =https://voices.uchicago.edu/bakkourlab/files/2019/04/1-milk.jpg></img>",65.71727354,1% milk,0.365853659,""""
133,1,"""","""",html-keyboard-response,171,1052365,0.0-7.83-0.83,null,null,view_stimuli,"<div class = ""display"">swedish fish</div>","""","""","""",""""
133,1,"""","""",html-slider-response,172,1059492,0.0-7.83-1.83,7124.9,69,rep_rating,"<div class = ""display"">swedish fish</div><br><br><img src =https://voices.uchicago.edu/bakkourlab/files/2019/04/Swedish-Fish.jpg></img>",47.89576306,swedish fish,0.285714286,""""
133,1,"""","""",html-keyboard-response,173,1063502,0.0-7.84-0.84,null,null,view_stimuli,"<div class = ""display"">tacos</div>","""","""","""",""""
133,1,"""","""",html-slider-response,174,1069308,0.0-7.84-1.84,5804.6,78,rep_rating,"<div class = ""display"">tacos</div><br><br><img src =https://voices.uchicago.edu/bakkourlab/files/2019/04/Taco-beef-Taco-Bell-soft-supreme-.jpg></img>",1.733599175,tacos,0.325,""""
133,1,"""","""",html-keyboard-response,175,1073314,0.0-7.85-0.85,null,null,view_stimuli,"<div class = ""display"">doritos</div>","""","""","""",""""
133,1,"""","""",html-slider-response,176,1078870,0.0-7.85-1.85,5554.4,91,rep_rating,"<div class = ""display"">doritos</div><br><br><img src =https://voices.uchicago.edu/bakkourlab/files/2019/04/Doritos-Nacho-Cheese.jpg></img>",77.06192414,doritos,0.619047619,""""
133,1,"""","""",html-keyboard-response,177,1082886,0.0-7.86-0.86,null,null,view_stimuli,"<div class = ""display"">burger</div>","""","""","""",""""
133,1,"""","""",html-slider-response,178,1088110,0.0-7.86-1.86,5219.8,100,rep_rating,"<div class = ""display"">burger</div><br><br><img src =https://voices.uchicago.edu/bakkourlab/files/2019/04/Burger-on-bun-homemade-80-lean.jpg></img>",97.71667994,burger,0.441860465,""""
133,1,"""","""",html-keyboard-response,179,1092116,0.0-7.87-0.87,null,null,view_stimuli,"<div class = ""display"">omelet</div>","""","""","""",""""
133,1,"""","""",html-slider-response,180,1096925,0.0-7.87-1.87,4807.9,39,rep_rating,"<div class = ""display"">omelet</div><br><br><img src =https://voices.uchicago.edu/bakkourlab/files/2019/04/Omelet-plain.jpg></img>",21.38201044,omelet,0.571428571,""""
133,1,"""","""",html-keyboard-response,181,1100935,0.0-7.88-0.88,null,null,view_stimuli,"<div class = ""display"">doughnuts</div>","""","""","""",""""
133,1,"""","""",html-slider-response,182,1106960,0.0-7.88-1.88,6022.6,72,rep_rating,"<div class = ""display"">doughnuts</div><br><br><img src =https://voices.uchicago.edu/bakkourlab/files/2019/04/Doughnuts-frosted-yeast-type.jpg></img>",52.25824459,doughnuts,0.575,""""
133,1,"""","""",html-keyboard-response,183,1110970,0.0-7.89-0.89,null,null,view_stimuli,"<div class = ""display"">carrot sticks</div>","""","""","""",""""
